Frame,Sub Frame,Fx,Fy,Fz,Mx,My,Mz,Cx,Cy,Cz,Pin 2,Pin 3,Pin 4,Pin 5,Pin 6,Pin 7,Fx,Fy,Fz,Mx,My,Mz,Cx,Cy,Cz,EMG1,EMG2,EMG3,EMG4,EMG5,EMG6,EMG7,EMG8,EMG9,EMG10,EMG11,EMG12,EMG13,EMG14,EMG15,EMG16,ACCX1,ACCY1,ACCZ1,ACCX2,ACCY2,ACCZ2,ACCX3,ACCY3,ACCZ3,ACCX4,ACCY4,ACCZ4,ACCX5,ACCY5,ACCZ5,ACCX6,ACCY6,ACCZ6,ACCX7,ACCY7,ACCZ7,ACCX8,ACCY8,ACCZ8,ACCX9,ACCY9,ACCZ9,ACCX10,ACCY10,ACCZ10,ACCX11,ACCY11,ACCZ11,ACCX12,ACCY12,ACCZ12,ACCX13,ACCY13,ACCZ13,ACCX14,ACCY14,ACCZ14,ACCX15,ACCY15,ACCZ15,ACCX16,ACCY16,ACCZ16
1,0,0,0,0,0,0,0,299.9,198,0,0.00518799,0.00457764,0.00610352,0.000305176,0.00366211,0.00457764,0,0,0,0,0,0,299.9,1012,0,0,0,0,0,0,0,0,0,-1.48E-05,-1.07E-05,-8.56E-06,-1.05E-05,0,0,0,0,0,0,0,0,0,0,0,0,0,0,0,0,0,0,0,0,0,0,0,0,0,3840.19,-4964.85,-14468.8,0,0,0,0,0,0,0,0,0,0,0,0,0,0,0,0,0,0,0,0,0,0,0,0
1,1,0,0,0,0,0,0,299.9,198,0,0.00274658,0.00305176,0.00457764,0.00549316,0.00518799,0.00671387,0,0,0,0,0,0,299.9,1012,0,0,0,0,0,0,0,0,0,-1.47E-05,-8.68E-06,-7.99E-06,-1.07E-05,0,0,0,0,0,0,0,0,0,0,0,0,0,0,0,0,0,0,0,0,0,0,0,0,0,3858.35,-4952.71,-14417,0,0,0,0,0,0,0,0,0,0,0,0,0,0,0,0,0,0,0,0,0,0,0,0
1,2,0,0,0,0,0,0,299.9,198,0,0.00274658,0.00305176,0.00457764,0.00549316,0.00518799,0.00671387,0,0,0,0,0,0,299.9,1012,0,0,0,0,0,0,0,0,0,-1.47E-05,-6.59E-06,-8.50E-06,-1.11E-05,0,0,0,0,0,0,0,0,0,0,0,0,0,0,0,0,0,0,0,0,0,0,0,0,0,3876.5,-4940.57,-14365.2,0,0,0,0,0,0,0,0,0,0,0,0,0,0,0,0,0,0,0,0,0,0,0,0
1,3,0,0,0,0,0,0,299.9,198,0,0.00396729,0.00274658,0.00518799,0.00152588,0.00213623,0.00518799,0,0,0,0,0,0,299.9,1012,0,0,0,0,0,0,0,0,0,-1.38E-05,-6.79E-06,-9.63E-06,-1.24E-05,0,0,0,0,0,0,0,0,0,0,0,0,0,0,0,0,0,0,0,0,0,0,0,0,0,3894.65,-4928.44,-14313.4,0,0,0,0,0,0,0,0,0,0,0,0,0,0,0,0,0,0,0,0,0,0,0,0
1,4,0,0,0,0,0,0,299.9,198,0,0.00396729,0.00274658,0.00518799,0.00152588,0.00213623,0.00518799,0,0,0,0,0,0,299.9,1012,0,0,0,0,0,0,0,0,0,-1.21E-05,-8.64E-06,-9.02E-06,-1.33E-05,0,0,0,0,0,0,0,0,0,0,0,0,0,0,0,0,0,0,0,0,0,0,0,0,0,3912.8,-4916.3,-14261.5,0,0,0,0,0,0,0,0,0,0,0,0,0,0,0,0,0,0,0,0,0,0,0,0
1,5,0,0,0,0,0,0,299.9,198,0,0.00457764,0.00610352,0.00366211,0.010376,0.00213623,0.00579834,0,0,0,0,0,0,299.9,1012,0,0,0,0,0,0,0,0,0,-1.04E-05,-9.13E-06,-6.30E-06,-1.24E-05,0,0,0,0,0,0,0,0,0,0,0,0,0,0,0,0,0,0,0,0,0,0,0,0,0,3930.95,-4904.17,-14209.7,0,0,0,0,0,0,0,0,0,0,0,0,0,0,0,0,0,0,0,0,0,0,0,0
1,6,0,0,0,0,0,0,299.9,198,0,0.00457764,0.00610352,0.00366211,0.010376,0.00213623,0.00579834,0,0,0,0,0,0,299.9,1012,0,0,0,0,0,0,0,0,0,-9.82E-06,-7.18E-06,-4.53E-06,-9.72E-06,0,0,0,0,0,0,0,0,0,0,0,0,0,0,0,0,0,0,0,0,0,0,0,0,0,3949.11,-4892.03,-14157.9,0,0,0,0,0,0,0,0,0,0,0,0,0,0,0,0,0,0,0,0,0,0,0,0
1,7,0,0,0,0,0,0,299.9,198,0,0.00427246,0.00701904,0.00488281,0.00427246,0.00244141,0.00518799,0,0,0,0,0,0,299.9,1012,0,0,0,0,0,0,0,0,0,-9.93E-06,-4.91E-06,-5.13E-06,-6.80E-06,0,0,0,0,0,0,0,0,0,0,0,0,0,0,0,0,0,0,0,0,0,0,0,0,0,3967.26,-4879.89,-14106,0,0,0,0,0,0,0,0,0,0,0,0,0,0,0,0,0,0,0,0,0,0,0,0
1,8,0,0,0,0,0,0,299.9,198,0,0.00427246,0.00701904,0.00488281,0.00427246,0.00244141,0.00518799,0,0,0,0,0,0,299.9,1012,0,0,0,0,0,0,0,0,0,-9.50E-06,-4.37E-06,-6.41E-06,-5.37E-06,0,0,0,0,0,0,0,0,0,0,0,0,0,0,0,0,0,0,0,0,0,0,0,0,0,3985.41,-4867.76,-14054.2,0,0,0,0,0,0,0,0,0,0,0,0,0,0,0,0,0,0,0,0,0,0,0,0
1,9,0,0,0,0,0,0,299.9,198,0,0.00305176,0.00427246,0.00488281,0.00305176,0.00366211,0.00518799,0,0,0,0,0,0,299.9,1012,0,0,0,0,0,0,0,0,0,-8.17E-06,-4.25E-06,-7.00E-06,-6.22E-06,0,0,0,0,0,0,0,0,0,0,0,0,0,0,0,0,0,0,0,0,0,0,0,0,0,4003.56,-4855.62,-14002.4,0,0,0,0,0,0,0,0,0,0,0,0,0,0,0,0,0,0,0,0,0,0,0,0
1,10,0,0,0,0,0,0,299.9,198,0,0.00305176,0.00427246,0.00488281,0.00305176,0.00366211,0.00518799,0,0,0,0,0,0,299.9,1012,0,0,0,0,0,0,0,0,0,-6.80E-06,-3.01E-06,-7.02E-06,-8.32E-06,0,0,0,0,0,0,0,0,0,0,0,0,0,0,0,0,0,0,0,0,0,0,0,0,0,4021.71,-4843.49,-13950.5,0,0,0,0,0,0,0,0,0,0,0,0,0,0,0,0,0,0,0,0,0,0,0,0
1,11,0,0,0,0,0,0,299.9,198,0,0.00427246,0.00396729,0.00488281,0.00183105,0.00366211,0.00549316,0,0,0,0,0,0,299.9,1012,0,0,0,0,0,0,0,0,0,-6.47E-06,-2.66E-06,-7.05E-06,-9.41E-06,0,0,0,0,0,0,0,0,0,0,0,0,0,0,0,0,0,0,0,0,0,0,0,0,0,3990.36,-4859.77,-13885.1,0,0,0,0,0,0,0,0,0,0,0,0,0,0,0,0,0,0,0,0,0,0,0,0
1,12,0,0,0,0,0,0,299.9,198,0,0.00427246,0.00396729,0.00488281,0.00183105,0.00366211,0.00549316,0,0,0,0,0,0,299.9,1012,0,0,0,0,0,0,0,0,0,-7.43E-06,-4.49E-06,-7.02E-06,-8.42E-06,0,0,0,0,0,0,0,0,0,0,0,0,0,0,0,0,0,0,0,0,0,0,0,0,0,3959,-4876.05,-13819.7,0,0,0,0,0,0,0,0,0,0,0,0,0,0,0,0,0,0,0,0,0,0,0,0
1,13,0,0,0,0,0,0,299.9,198,0,0.00274658,0.00610352,0.00640869,0.00335693,0.00305176,0.00518799,0,0,0,0,0,0,299.9,1012,0,0,0,0,0,0,0,0,0,-8.79E-06,-6.08E-06,-6.04E-06,-6.54E-06,0,0,0,0,0,0,0,0,0,0,0,0,0,0,0,0,0,0,0,0,0,0,0,0,0,3927.65,-4892.33,-13754.3,0,0,0,0,0,0,0,0,0,0,0,0,0,0,0,0,0,0,0,0,0,0,0,0
1,14,0,0,0,0,0,0,299.9,198,0,0.00274658,0.00610352,0.00640869,0.00335693,0.00305176,0.00518799,0,0,0,0,0,0,299.9,1012,0,0,0,0,0,0,0,0,0,-9.28E-06,-5.74E-06,-4.02E-06,-5.39E-06,0,0,0,0,0,0,0,0,0,0,0,0,0,0,0,0,0,0,0,0,0,0,0,0,0,3896.29,-4908.61,-13688.9,0,0,0,0,0,0,0,0,0,0,0,0,0,0,0,0,0,0,0,0,0,0,0,0
1,15,0,0,0,0,0,0,299.9,198,0,0.00488281,0.00457764,0.00579834,0.00366211,0.00396729,0.00579834,0,0,0,0,0,0,299.9,1012,0,0,0,0,0,0,0,0,0,-8.52E-06,-4.67E-06,-2.18E-06,-5.80E-06,0,0,0,0,0,0,0,0,0,0,0,0,0,0,0,0,0,0,0,0,0,0,0,0,0,3864.93,-4924.89,-13623.5,0,0,0,0,0,0,0,0,0,0,0,0,0,0,0,0,0,0,0,0,0,0,0,0
1,16,0,0,0,0,0,0,299.9,198,0,0.00488281,0.00457764,0.00579834,0.00366211,0.00396729,0.00579834,0,0,0,0,0,0,299.9,1012,0,0,0,0,0,0,0,0,0,-8.10E-06,-4.58E-06,-1.61E-06,-7.63E-06,0,0,0,0,0,0,0,0,0,0,0,0,0,0,0,0,0,0,0,0,0,0,0,0,0,3833.58,-4941.17,-13558.1,0,0,0,0,0,0,0,0,0,0,0,0,0,0,0,0,0,0,0,0,0,0,0,0
1,17,0,0,0,0,0,0,299.9,198,0,0.00335693,0.00579834,0.00396729,0.00274658,0.00274658,0.00518799,0,0,0,0,0,0,299.9,1012,0,0,0,0,0,0,0,0,0,-9.96E-06,-5.79E-06,-2.35E-06,-9.81E-06,0,0,0,0,0,0,0,0,0,0,0,0,0,0,0,0,0,0,0,0,0,0,0,0,0,3802.22,-4957.45,-13492.7,0,0,0,0,0,0,0,0,0,0,0,0,0,0,0,0,0,0,0,0,0,0,0,0
1,18,0,0,0,0,0,0,299.9,198,0,0.00335693,0.00579834,0.00396729,0.00274658,0.00274658,0.00518799,0,0,0,0,0,0,299.9,1012,0,0,0,0,0,0,0,0,0,-1.33E-05,-6.87E-06,-3.56E-06,-1.14E-05,0,0,0,0,0,0,0,0,0,0,0,0,0,0,0,0,0,0,0,0,0,0,0,0,0,3770.87,-4973.73,-13427.3,0,0,0,0,0,0,0,0,0,0,0,0,0,0,0,0,0,0,0,0,0,0,0,0
1,19,0,0,0,0,0,0,299.9,198,0,0.00274658,-0.000915527,0.00274658,0.00366211,0.00488281,0.00549316,0,0,0,0,0,0,299.9,1012,0,0,0,0,0,0,0,0,0,-1.59E-05,-6.99E-06,-4.33E-06,-1.20E-05,0,0,0,0,0,0,0,0,0,0,0,0,0,0,0,0,0,0,0,0,0,0,0,0,0,3739.51,-4990,-13361.9,0,0,0,0,0,0,0,0,0,0,0,0,0,0,0,0,0,0,0,0,0,0,0,0
2,0,0,0,0,0,0,0,299.9,198,0,0.00274658,-0.000915527,0.00274658,0.00366211,0.00488281,0.00549316,0,0,0,0,0,0,299.9,1012,0,0,0,0,0,0,0,0,0,-1.70E-05,-7.93E-06,-4.30E-06,-1.18E-05,0,0,0,0,0,0,0,0,0,0,0,0,0,0,0,0,0,0,0,0,0,0,0,0,0,3708.15,-5006.28,-13296.5,0,0,0,0,0,0,0,0,0,0,0,0,0,0,0,0,0,0,0,0,0,0,0,0
2,1,0,0,0,0,0,0,299.9,198,0,0.00457764,0.00396729,0.00152588,0.00518799,0.00396729,0.00305176,0,0,0,0,0,0,299.9,1012,0,0,0,0,0,0,0,0,0,-1.72E-05,-1.01E-05,-4.01E-06,-1.12E-05,0,0,0,0,0,0,0,0,0,0,0,0,0,0,0,0,0,0,0,0,0,0,0,0,0,3676.8,-5022.56,-13231.1,0,0,0,0,0,0,0,0,0,0,0,0,0,0,0,0,0,0,0,0,0,0,0,0
2,2,0,0,0,0,0,0,299.9,198,0,0.00457764,0.00396729,0.00152588,0.00518799,0.00396729,0.00305176,0,0,0,0,0,0,299.9,1012,0,0,0,0,0,0,0,0,0,-1.77E-05,-1.04E-05,-4.61E-06,-1.11E-05,0,0,0,0,0,0,0,0,0,0,0,0,0,0,0,0,0,0,0,0,0,0,0,0,0,3645.44,-5038.84,-13165.7,0,0,0,0,0,0,0,0,0,0,0,0,0,0,0,0,0,0,0,0,0,0,0,0
2,3,0,0,0,0,0,0,299.9,198,0,0.00488281,0.00457764,0.00335693,0.00396729,0.00152588,0.00518799,0,0,0,0,0,0,299.9,1012,0,0,0,0,0,0,0,0,0,-1.85E-05,-8.00E-06,-6.24E-06,-1.18E-05,0,0,0,0,0,0,0,0,0,0,0,0,0,0,0,0,0,0,0,0,0,0,0,0,0,3614.09,-5055.12,-13100.3,0,0,0,0,0,0,0,0,0,0,0,0,0,0,0,0,0,0,0,0,0,0,0,0
2,4,0,0,0,0,0,0,299.9,198,0,0.00488281,0.00457764,0.00335693,0.00396729,0.00152588,0.00518799,0,0,0,0,0,0,299.9,1012,0,0,0,0,0,0,0,0,0,-1.85E-05,-6.12E-06,-7.86E-06,-1.28E-05,0,0,0,0,0,0,0,0,0,0,0,0,0,0,0,0,0,0,0,0,0,0,0,0,0,3588.42,-5078.8,-13031,0,0,0,0,0,0,0,0,0,0,0,0,0,0,0,0,0,0,0,0,0,0,0,0
2,5,0,0,0,0,0,0,299.9,198,0,0.00366211,0.00457764,0.00305176,0.00488281,0.00366211,0.00518799,0,0,0,0,0,0,299.9,1012,0,0,0,0,0,0,0,0,0,-1.76E-05,-6.81E-06,-9.11E-06,-1.34E-05,0,0,0,0,0,0,0,0,0,0,0,0,0,0,0,0,0,0,0,0,0,0,0,0,0,3568.43,-5109.88,-12957.9,0,0,0,0,0,0,0,0,0,0,0,0,0,0,0,0,0,0,0,0,0,0,0,0
2,6,0,0,0,0,0,0,299.9,198,0,0.00366211,0.00457764,0.00305176,0.00488281,0.00366211,0.00518799,0,0,0,0,0,0,299.9,1012,0,0,0,0,0,0,0,0,0,-1.65E-05,-8.97E-06,-1.03E-05,-1.36E-05,0,0,0,0,0,0,0,0,0,0,0,0,0,0,0,0,0,0,0,0,0,0,0,0,0,3548.44,-5140.95,-12884.8,0,0,0,0,0,0,0,0,0,0,0,0,0,0,0,0,0,0,0,0,0,0,0,0
2,7,0,0,0,0,0,0,299.9,198,0,0.00457764,0.00396729,0.00640869,0.00335693,0.00335693,0.00518799,0,0,0,0,0,0,299.9,1012,0,0,0,0,0,0,0,0,0,-1.58E-05,-1.06E-05,-1.14E-05,-1.36E-05,0,0,0,0,0,0,0,0,0,0,0,0,0,0,0,0,0,0,0,0,0,0,0,0,0,3528.45,-5172.03,-12811.7,0,0,0,0,0,0,0,0,0,0,0,0,0,0,0,0,0,0,0,0,0,0,0,0
2,8,0,0,0,0,0,0,299.9,198,0,0.00457764,0.00396729,0.00640869,0.00335693,0.00335693,0.00518799,0,0,0,0,0,0,299.9,1012,0,0,0,0,0,0,0,0,0,-1.57E-05,-1.11E-05,-1.22E-05,-1.34E-05,0,0,0,0,0,0,0,0,0,0,0,0,0,0,0,0,0,0,0,0,0,0,0,0,0,3508.46,-5203.1,-12738.6,0,0,0,0,0,0,0,0,0,0,0,0,0,0,0,0,0,0,0,0,0,0,0,0
2,9,0,0,0,0,0,0,299.9,198,0,0.00457764,0.00549316,0.00427246,0.00305176,0.00366211,0.00427246,0,0,0,0,0,0,299.9,1012,0,0,0,0,0,0,0,0,0,-1.61E-05,-1.19E-05,-1.22E-05,-1.33E-05,0,0,0,0,0,0,0,0,0,0,0,0,0,0,0,0,0,0,0,0,0,0,0,0,0,3488.48,-5234.18,-12665.4,0,0,0,0,0,0,0,0,0,0,0,0,0,0,0,0,0,0,0,0,0,0,0,0
2,10,0,0,0,0,0,0,299.9,198,0,0.00457764,0.00549316,0.00427246,0.00305176,0.00366211,0.00427246,0,0,0,0,0,0,299.9,1012,0,0,0,0,0,0,0,0,0,-1.65E-05,-1.31E-05,-1.09E-05,-1.27E-05,0,0,0,0,0,0,0,0,0,0,0,0,0,0,0,0,0,0,0,0,0,0,0,0,0,3468.49,-5265.26,-12592.3,0,0,0,0,0,0,0,0,0,0,0,0,0,0,0,0,0,0,0,0,0,0,0,0
2,11,0,0,0,0,0,0,299.9,198,0,0.00366211,0.00457764,0.00457764,0.00305176,0.00305176,0.00549316,0,0,0,0,0,0,299.9,1012,0,0,0,0,0,0,0,0,0,-1.62E-05,-1.34E-05,-9.28E-06,-1.09E-05,0,0,0,0,0,0,0,0,0,0,0,0,0,0,0,0,0,0,0,0,0,0,0,0,0,3448.5,-5296.33,-12519.2,0,0,0,0,0,0,0,0,0,0,0,0,0,0,0,0,0,0,0,0,0,0,0,0
2,12,0,0,0,0,0,0,299.9,198,0,0.00366211,0.00457764,0.00457764,0.00305176,0.00305176,0.00549316,0,0,0,0,0,0,299.9,1012,0,0,0,0,0,0,0,0,0,-1.50E-05,-1.25E-05,-8.57E-06,-8.13E-06,0,0,0,0,0,0,0,0,0,0,0,0,0,0,0,0,0,0,0,0,0,0,0,0,0,3428.51,-5327.41,-12446.1,0,0,0,0,0,0,0,0,0,0,0,0,0,0,0,0,0,0,0,0,0,0,0,0
2,13,0,0,0,0,0,0,299.9,198,0,0.00396729,0.00427246,0.00396729,0.00335693,0.00305176,0.00518799,0,0,0,0,0,0,299.9,1012,0,0,0,0,0,0,0,0,0,-1.38E-05,-1.20E-05,-8.26E-06,-6.50E-06,0,0,0,0,0,0,0,0,0,0,0,0,0,0,0,0,0,0,0,0,0,0,0,0,0,3408.53,-5358.48,-12373,0,0,0,0,0,0,0,0,0,0,0,0,0,0,0,0,0,0,0,0,0,0,0,0
2,14,0,0,0,0,0,0,299.9,198,0,0.00396729,0.00427246,0.00396729,0.00335693,0.00305176,0.00518799,0,0,0,0,0,0,299.9,1012,0,0,0,0,0,0,0,0,0,-1.34E-05,-1.24E-05,-8.06E-06,-6.91E-06,0,0,0,0,0,0,0,0,0,0,0,0,0,0,0,0,0,0,0,0,0,0,0,0,0,3388.54,-5389.56,-12299.9,0,0,0,0,0,0,0,0,0,0,0,0,0,0,0,0,0,0,0,0,0,0,0,0
2,15,0,0,0,0,0,0,299.9,198,0,0.00366211,0.00396729,0.00549316,0.00396729,0.00396729,0.00671387,0,0,0,0,0,0,299.9,1012,0,0,0,0,0,0,0,0,0,-1.34E-05,-1.27E-05,-8.27E-06,-8.22E-06,0,0,0,0,0,0,0,0,0,0,0,0,0,0,0,0,0,0,0,0,0,0,0,0,0,3368.55,-5420.64,-12226.7,0,0,0,0,0,0,0,0,0,0,0,0,0,0,0,0,0,0,0,0,0,0,0,0
2,16,0,0,0,0,0,0,299.9,198,0,0.00366211,0.00396729,0.00549316,0.00396729,0.00396729,0.00671387,0,0,0,0,0,0,299.9,1012,0,0,0,0,0,0,0,0,0,-1.25E-05,-1.21E-05,-8.07E-06,-9.05E-06,0,0,0,0,0,0,0,0,0,0,0,0,0,0,0,0,0,0,0,0,0,0,0,0,0,3348.56,-5451.71,-12153.6,0,0,0,0,0,0,0,0,0,0,0,0,0,0,0,0,0,0,0,0,0,0,0,0
2,17,0,0,0,0,0,0,299.9,198,0,0.00427246,0.00366211,0.00396729,0.00366211,0.00396729,0.00610352,0,0,0,0,0,0,299.9,1012,0,0,0,0,0,0,0,0,0,-1.04E-05,-1.09E-05,-6.71E-06,-8.51E-06,0,0,0,0,0,0,0,0,0,0,0,0,0,0,0,0,0,0,0,0,0,0,0,0,0,3328.57,-5482.79,-12080.5,0,0,0,0,0,0,0,0,0,0,0,0,0,0,0,0,0,0,0,0,0,0,0,0
2,18,0,0,0,0,0,0,299.9,198,0,0.00427246,0.00366211,0.00396729,0.00366211,0.00396729,0.00610352,0,0,0,0,0,0,299.9,1012,0,0,0,0,0,0,0,0,0,-8.94E-06,-1.04E-05,-5.29E-06,-6.01E-06,0,0,0,0,0,0,0,0,0,0,0,0,0,0,0,0,0,0,0,0,0,0,0,0,0,3345.12,-5522.45,-11999.6,0,0,0,0,0,0,0,0,0,0,0,0,0,0,0,0,0,0,0,0,0,0,0,0
2,19,0,0,0,0,0,0,299.9,198,0,0.00549316,0.00579834,0.00335693,0.00152588,0.00579834,0.00549316,0,0,0,0,0,0,299.9,1012,0,0,0,0,0,0,0,0,0,-8.84E-06,-1.08E-05,-4.87E-06,-2.43E-06,0,0,0,0,0,0,0,0,0,0,0,0,0,0,0,0,0,0,0,0,0,0,0,0,0,3361.66,-5562.12,-11918.6,0,0,0,0,0,0,0,0,0,0,0,0,0,0,0,0,0,0,0,0,0,0,0,0
3,0,0,0,0,0,0,0,299.9,198,0,0.00549316,0.00579834,0.00335693,0.00152588,0.00579834,0.00549316,0,0,0,0,0,0,299.9,1012,0,0,0,0,0,0,0,0,0,-8.03E-06,-1.07E-05,-5.07E-06,-3.00E-07,0,0,0,0,0,0,0,0,0,0,0,0,0,0,0,0,0,0,0,0,0,0,0,0,0,3378.2,-5601.78,-11837.7,0,0,0,0,0,0,0,0,0,0,0,0,0,0,0,0,0,0,0,0,0,0,0,0
3,1,0,0,0,0,0,0,299.9,198,0,0.00335693,0.00488281,0.00366211,0.00366211,0,0.00518799,0,0,0,0,0,0,299.9,1012,0,0,0,0,0,0,0,0,0,-5.61E-06,-9.47E-06,-5.62E-06,-2.53E-07,0,0,0,0,0,0,0,0,0,0,0,0,0,0,0,0,0,0,0,0,0,0,0,0,0,3394.74,-5641.45,-11756.8,0,0,0,0,0,0,0,0,0,0,0,0,0,0,0,0,0,0,0,0,0,0,0,0
3,2,0,0,0,0,0,0,299.9,198,0,0.00335693,0.00488281,0.00366211,0.00366211,0,0.00518799,0,0,0,0,0,0,299.9,1012,0,0,0,0,0,0,0,0,0,-3.31E-06,-8.20E-06,-6.57E-06,-2.82E-07,0,0,0,0,0,0,0,0,0,0,0,0,0,0,0,0,0,0,0,0,0,0,0,0,0,3411.28,-5681.11,-11675.8,0,0,0,0,0,0,0,0,0,0,0,0,0,0,0,0,0,0,0,0,0,0,0,0
3,3,0,0,0,0,0,0,299.9,198,0,0.00518799,0.00579834,0.00518799,0.00366211,0.00213623,0.00610352,0,0,0,0,0,0,299.9,1012,0,0,0,0,0,0,0,0,0,-2.53E-06,-8.42E-06,-6.70E-06,4.54E-07,0,0,0,0,0,0,0,0,0,0,0,0,0,0,0,0,0,0,0,0,0,0,0,0,0,3427.82,-5720.78,-11594.9,0,0,0,0,0,0,0,0,0,0,0,0,0,0,0,0,0,0,0,0,0,0,0,0
3,4,0,0,0,0,0,0,299.9,198,0,0.00518799,0.00579834,0.00518799,0.00366211,0.00213623,0.00610352,0,0,0,0,0,0,299.9,1012,0,0,0,0,0,0,0,0,0,-3.04E-06,-1.04E-05,-5.00E-06,9.18E-07,0,0,0,0,0,0,0,0,0,0,0,0,0,0,0,0,0,0,0,0,0,0,0,0,0,3444.36,-5760.44,-11514,0,0,0,0,0,0,0,0,0,0,0,0,0,0,0,0,0,0,0,0,0,0,0,0
3,5,0,0,0,0,0,0,299.9,198,0,0.00396729,0.00518799,0.00427246,0.00457764,0.00183105,0.00549316,0,0,0,0,0,0,299.9,1012,0,0,0,0,0,0,0,0,0,-3.86E-06,-1.30E-05,-3.14E-06,3.89E-07,0,0,0,0,0,0,0,0,0,0,0,0,0,0,0,0,0,0,0,0,0,0,0,0,0,3460.91,-5800.11,-11433,0,0,0,0,0,0,0,0,0,0,0,0,0,0,0,0,0,0,0,0,0,0,0,0
3,6,0,0,0,0,0,0,299.9,198,0,0.00396729,0.00518799,0.00427246,0.00457764,0.00183105,0.00549316,0,0,0,0,0,0,299.9,1012,0,0,0,0,0,0,0,0,0,-4.58E-06,-1.47E-05,-3.05E-06,-8.92E-07,0,0,0,0,0,0,0,0,0,0,0,0,0,0,0,0,0,0,0,0,0,0,0,0,0,3477.45,-5839.77,-11352.1,0,0,0,0,0,0,0,0,0,0,0,0,0,0,0,0,0,0,0,0,0,0,0,0
3,7,0,0,0,0,0,0,299.9,198,0,0.00335693,0.00518799,0.00488281,0.00213623,0.00366211,0.00518799,0,0,0,0,0,0,299.9,1012,0,0,0,0,0,0,0,0,0,-6.10E-06,-1.50E-05,-3.87E-06,-2.16E-06,0,0,0,0,0,0,0,0,0,0,0,0,0,0,0,0,0,0,0,0,0,0,0,0,0,3493.99,-5879.44,-11271.1,0,0,0,0,0,0,0,0,0,0,0,0,0,0,0,0,0,0,0,0,0,0,0,0
3,8,0,0,0,0,0,0,299.9,198,0,0.00335693,0.00518799,0.00488281,0.00213623,0.00366211,0.00518799,0,0,0,0,0,0,299.9,1012,0,0,0,0,0,0,0,0,0,-8.64E-06,-1.46E-05,-4.17E-06,-3.07E-06,0,0,0,0,0,0,0,0,0,0,0,0,0,0,0,0,0,0,0,0,0,0,0,0,0,3510.53,-5919.1,-11190.2,0,0,0,0,0,0,0,0,0,0,0,0,0,0,0,0,0,0,0,0,0,0,0,0
3,9,0,0,0,0,0,0,299.9,198,0,0.00396729,0.00427246,0.00427246,0.00274658,0.00305176,0.00518799,0,0,0,0,0,0,299.9,1012,0,0,0,0,0,0,0,0,0,-1.06E-05,-1.40E-05,-4.08E-06,-3.93E-06,0,0,0,0,0,0,0,0,0,0,0,0,0,0,0,0,0,0,0,0,0,0,0,0,0,3527.07,-5958.77,-11109.3,0,0,0,0,0,0,0,0,0,0,0,0,0,0,0,0,0,0,0,0,0,0,0,0
3,10,0,0,0,0,0,0,299.9,198,0,0.00396729,0.00427246,0.00427246,0.00274658,0.00305176,0.00518799,0,0,0,0,0,0,299.9,1012,0,0,0,0,0,0,0,0,0,-1.11E-05,-1.30E-05,-4.26E-06,-4.67E-06,0,0,0,0,0,0,0,0,0,0,0,0,0,0,0,0,0,0,0,0,0,0,0,0,0,3543.61,-5998.43,-11028.3,0,0,0,0,0,0,0,0,0,0,0,0,0,0,0,0,0,0,0,0,0,0,0,0
3,11,0,0,0,0,0,0,299.9,198,0,0.00305176,0.00518799,0.00488281,0.00213623,0.00305176,0.00549316,0,0,0,0,0,0,299.9,1012,0,0,0,0,0,0,0,0,0,-1.07E-05,-1.10E-05,-4.95E-06,-4.80E-06,0,0,0,0,0,0,0,0,0,0,0,0,0,0,0,0,0,0,0,0,0,0,0,0,0,3551.44,-6046.23,-10941.9,0,0,0,0,0,0,0,0,0,0,0,0,0,0,0,0,0,0,0,0,0,0,0,0
3,12,0,0,0,0,0,0,299.9,198,0,0.00305176,0.00518799,0.00488281,0.00213623,0.00305176,0.00549316,0,0,0,0,0,0,299.9,1012,0,0,0,0,0,0,0,0,0,-9.44E-06,-8.97E-06,-5.66E-06,-4.69E-06,0,0,0,0,0,0,0,0,0,0,0,0,0,0,0,0,0,0,0,0,0,0,0,0,0,3550.57,-6102.18,-10849.9,0,0,0,0,0,0,0,0,0,0,0,0,0,0,0,0,0,0,0,0,0,0,0,0
3,13,0,0,0,0,0,0,299.9,198,0,0.00274658,0.00518799,0.00518799,0.00396729,0.00305176,0.00518799,0,0,0,0,0,0,299.9,1012,0,0,0,0,0,0,0,0,0,-7.05E-06,-8.22E-06,-5.77E-06,-5.08E-06,0,0,0,0,0,0,0,0,0,0,0,0,0,0,0,0,0,0,0,0,0,0,0,0,0,3549.69,-6158.12,-10758,0,0,0,0,0,0,0,0,0,0,0,0,0,0,0,0,0,0,0,0,0,0,0,0
3,14,0,0,0,0,0,0,299.9,198,0,0.00274658,0.00518799,0.00518799,0.00396729,0.00305176,0.00518799,0,0,0,0,0,0,299.9,1012,0,0,0,0,0,0,0,0,0,-4.82E-06,-8.85E-06,-5.87E-06,-5.13E-06,0,0,0,0,0,0,0,0,0,0,0,0,0,0,0,0,0,0,0,0,0,0,0,0,0,3548.82,-6214.06,-10666,0,0,0,0,0,0,0,0,0,0,0,0,0,0,0,0,0,0,0,0,0,0,0,0
3,15,0,0,0,0,0,0,299.9,198,0,0.00305176,0.00549316,0.00488281,0.00305176,0.00335693,0.00518799,0,0,0,0,0,0,299.9,1012,0,0,0,0,0,0,0,0,0,-3.44E-06,-1.05E-05,-7.13E-06,-3.47E-06,0,0,0,0,0,0,0,0,0,0,0,0,0,0,0,0,0,0,0,0,0,0,0,0,0,3547.94,-6270,-10574,0,0,0,0,0,0,0,0,0,0,0,0,0,0,0,0,0,0,0,0,0,0,0,0
3,16,0,0,0,0,0,0,299.9,198,0,0.00305176,0.00549316,0.00488281,0.00305176,0.00335693,0.00518799,0,0,0,0,0,0,299.9,1012,0,0,0,0,0,0,0,0,0,-2.15E-06,-1.26E-05,-8.81E-06,-1.50E-06,0,0,0,0,0,0,0,0,0,0,0,0,0,0,0,0,0,0,0,0,0,0,0,0,0,3547.07,-6325.94,-10482.1,0,0,0,0,0,0,0,0,0,0,0,0,0,0,0,0,0,0,0,0,0,0,0,0
3,17,0,0,0,0,0,0,299.9,198,0,0.00579834,0.00549316,0.00427246,0.00671387,0.00305176,0.00549316,0,0,0,0,0,0,299.9,1012,0,0,0,0,0,0,0,0,0,-6.31E-07,-1.41E-05,-9.16E-06,-1.45E-06,0,0,0,0,0,0,0,0,0,0,0,0,0,0,0,0,0,0,0,0,0,0,0,0,0,3546.19,-6381.88,-10390.1,0,0,0,0,0,0,0,0,0,0,0,0,0,0,0,0,0,0,0,0,0,0,0,0
3,18,0,0,0,0,0,0,299.9,198,0,0.00579834,0.00549316,0.00427246,0.00671387,0.00305176,0.00549316,0,0,0,0,0,0,299.9,1012,0,0,0,0,0,0,0,0,0,1.51E-06,-1.54E-05,-8.49E-06,-2.04E-06,0,0,0,0,0,0,0,0,0,0,0,0,0,0,0,0,0,0,0,0,0,0,0,0,0,3545.32,-6437.82,-10298.2,0,0,0,0,0,0,0,0,0,0,0,0,0,0,0,0,0,0,0,0,0,0,0,0
3,19,0,0,0,0,0,0,299.9,198,0,0.010376,0.00610352,0.00427246,-0.00762939,0.00152588,0.00671387,0,0,0,0,0,0,299.9,1012,0,0,0,0,0,0,0,0,0,4.81E-06,-1.68E-05,-8.01E-06,-1.35E-06,0,0,0,0,0,0,0,0,0,0,0,0,0,0,0,0,0,0,0,0,0,0,0,0,0,3544.44,-6493.76,-10206.2,0,0,0,0,0,0,0,0,0,0,0,0,0,0,0,0,0,0,0,0,0,0,0,0
4,0,0,0,0,0,0,0,299.9,198,0,0.010376,0.00610352,0.00427246,-0.00762939,0.00152588,0.00671387,0,0,0,0,0,0,299.9,1012,0,0,0,0,0,0,0,0,0,8.00E-06,-1.69E-05,-7.64E-06,-4.35E-07,0,0,0,0,0,0,0,0,0,0,0,0,0,0,0,0,0,0,0,0,0,0,0,0,0,3543.57,-6549.7,-10114.2,0,0,0,0,0,0,0,0,0,0,0,0,0,0,0,0,0,0,0,0,0,0,0,0
4,1,0,0,0,0,0,0,299.9,198,0,0,0.00274658,0.00518799,-0.000915527,0.00335693,0.00671387,0,0,0,0,0,0,299.9,1012,0,0,0,0,0,0,0,0,0,8.47E-06,-1.58E-05,-7.31E-06,-6.69E-07,0,0,0,0,0,0,0,0,0,0,0,0,0,0,0,0,0,0,0,0,0,0,0,0,0,3542.69,-6605.64,-10022.3,0,0,0,0,0,0,0,0,0,0,0,0,0,0,0,0,0,0,0,0,0,0,0,0
4,2,0,0,0,0,0,0,299.9,198,0,0,0.00274658,0.00518799,-0.000915527,0.00335693,0.00671387,0,0,0,0,0,0,299.9,1012,0,0,0,0,0,0,0,0,0,5.55E-06,-1.55E-05,-7.53E-06,-1.73E-06,0,0,0,0,0,0,0,0,0,0,0,0,0,0,0,0,0,0,0,0,0,0,0,0,0,3541.82,-6661.58,-9930.32,0,0,0,0,0,0,0,0,0,0,0,0,0,0,0,0,0,0,0,0,0,0,0,0
4,3,0,0,0,0,0,0,299.9,198,0,0.00427246,0.00610352,0.00427246,0.00335693,0.00305176,0.00549316,0,0,0,0,0,0,299.9,1012,0,0,0,0,0,0,0,0,0,1.98E-06,-1.61E-05,-8.07E-06,-2.78E-06,0,0,0,0,0,0,0,0,0,0,0,0,0,0,0,0,0,0,0,0,0,0,0,0,0,3540.94,-6717.52,-9838.36,0,0,0,0,0,0,0,0,0,0,0,0,0,0,0,0,0,0,0,0,0,0,0,0
4,4,0,0,0,0,0,0,299.9,198,0,0.00427246,0.00610352,0.00427246,0.00335693,0.00305176,0.00549316,0,0,0,0,0,0,299.9,1012,0,0,0,0,0,0,0,0,0,1.39E-07,-1.62E-05,-8.18E-06,-3.46E-06,0,0,0,0,0,0,0,0,0,0,0,0,0,0,0,0,0,0,0,0,0,0,0,0,0,3540.07,-6773.46,-9746.4,0,0,0,0,0,0,0,0,0,0,0,0,0,0,0,0,0,0,0,0,0,0,0,0
4,5,0,0,0,0,0,0,299.9,198,0,0.00488281,0.00427246,0.00762939,0.00427246,0.00305176,0.00579834,0,0,0,0,0,0,299.9,1012,0,0,0,0,0,0,0,0,0,-1.20E-06,-1.49E-05,-7.68E-06,-3.93E-06,0,0,0,0,0,0,0,0,0,0,0,0,0,0,0,0,0,0,0,0,0,0,0,0,0,3491.7,-6841.43,-9651.58,0,0,0,0,0,0,0,0,0,0,0,0,0,0,0,0,0,0,0,0,0,0,0,0
4,6,0,0,0,0,0,0,299.9,198,0,0.00488281,0.00427246,0.00762939,0.00427246,0.00305176,0.00579834,0,0,0,0,0,0,299.9,1012,0,0,0,0,0,0,0,0,0,-3.41E-06,-1.30E-05,-6.97E-06,-4.53E-06,0,0,0,0,0,0,0,0,0,0,0,0,0,0,0,0,0,0,0,0,0,0,0,0,0,3443.34,-6909.39,-9556.76,0,0,0,0,0,0,0,0,0,0,0,0,0,0,0,0,0,0,0,0,0,0,0,0
4,7,0,0,0,0,0,0,299.9,198,0,0.00396729,0.00518799,0.00488281,0.00396729,0.00335693,0.00488281,0,0,0,0,0,0,299.9,1012,0,0,0,0,0,0,0,0,0,-5.44E-06,-1.14E-05,-6.64E-06,-5.54E-06,0,0,0,0,0,0,0,0,0,0,0,0,0,0,0,0,0,0,0,0,0,0,0,0,0,3394.97,-6977.35,-9461.95,0,0,0,0,0,0,0,0,0,0,0,0,0,0,0,0,0,0,0,0,0,0,0,0
4,8,0,0,0,0,0,0,299.9,198,0,0.00396729,0.00518799,0.00488281,0.00396729,0.00335693,0.00488281,0,0,0,0,0,0,299.9,1012,0,0,0,0,0,0,0,0,0,-6.53E-06,-1.08E-05,-7.10E-06,-6.35E-06,0,0,0,0,0,0,0,0,0,0,0,0,0,0,0,0,0,0,0,0,0,0,0,0,0,3346.61,-7045.32,-9367.13,0,0,0,0,0,0,0,0,0,0,0,0,0,0,0,0,0,0,0,0,0,0,0,0
4,9,0,0,0,0,0,0,299.9,198,0,0.00366211,0.00457764,0.00488281,0.00305176,0.00366211,0.00488281,0,0,0,0,0,0,299.9,1012,0,0,0,0,0,0,0,0,0,-7.57E-06,-1.10E-05,-8.37E-06,-6.11E-06,0,0,0,0,0,0,0,0,0,0,0,0,0,0,0,0,0,0,0,0,0,0,0,0,0,3298.24,-7113.28,-9272.31,0,0,0,0,0,0,0,0,0,0,0,0,0,0,0,0,0,0,0,0,0,0,0,0
4,10,0,0,0,0,0,0,299.9,198,0,0.00366211,0.00457764,0.00488281,0.00305176,0.00366211,0.00488281,0,0,0,0,0,0,299.9,1012,0,0,0,0,0,0,0,0,0,-9.58E-06,-1.06E-05,-1.01E-05,-5.56E-06,0,0,0,0,0,0,0,0,0,0,0,0,0,0,0,0,0,0,0,0,0,0,0,0,0,3249.87,-7181.24,-9177.49,0,0,0,0,0,0,0,0,0,0,0,0,0,0,0,0,0,0,0,0,0,0,0,0
4,11,0,0,0,0,0,0,299.9,198,0,0.00305176,0.00427246,0.00549316,0.00335693,0.00396729,0.00518799,0,0,0,0,0,0,299.9,1012,0,0,0,0,0,0,0,0,0,-1.23E-05,-8.64E-06,-1.18E-05,-6.40E-06,0,0,0,0,0,0,0,0,0,0,0,0,0,0,0,0,0,0,0,0,0,0,0,0,0,3201.51,-7249.21,-9082.68,0,0,0,0,0,0,0,0,0,0,0,0,0,0,0,0,0,0,0,0,0,0,0,0
4,12,0,0,0,0,0,0,299.9,198,0,0.00305176,0.00427246,0.00549316,0.00335693,0.00396729,0.00518799,0,0,0,0,0,0,299.9,1012,0,0,0,0,0,0,0,0,0,-1.40E-05,-6.43E-06,-1.31E-05,-8.78E-06,0,0,0,0,0,0,0,0,0,0,0,0,0,0,0,0,0,0,0,0,0,0,0,0,0,3153.14,-7317.17,-8987.86,0,0,0,0,0,0,0,0,0,0,0,0,0,0,0,0,0,0,0,0,0,0,0,0
4,13,0,0,0,0,0,0,299.9,198,0,0.00427246,0.00427246,0.00549316,0.00549316,0.00213623,0.00549316,0,0,0,0,0,0,299.9,1012,0,0,0,0,0,0,0,0,0,-1.33E-05,-5.44E-06,-1.39E-05,-1.14E-05,0,0,0,0,0,0,0,0,0,0,0,0,0,0,0,0,0,0,0,0,0,0,0,0,0,3104.78,-7385.13,-8893.04,0,0,0,0,0,0,0,0,0,0,0,0,0,0,0,0,0,0,0,0,0,0,0,0
4,14,0,0,0,0,0,0,299.9,198,0,0.00427246,0.00427246,0.00549316,0.00549316,0.00213623,0.00549316,0,0,0,0,0,0,299.9,1012,0,0,0,0,0,0,0,0,0,-1.09E-05,-4.50E-06,-1.45E-05,-1.28E-05,0,0,0,0,0,0,0,0,0,0,0,0,0,0,0,0,0,0,0,0,0,0,0,0,0,3056.41,-7453.1,-8798.22,0,0,0,0,0,0,0,0,0,0,0,0,0,0,0,0,0,0,0,0,0,0,0,0
4,15,0,0,0,0,0,0,299.9,198,0,0.00457764,0.00335693,0.00396729,0.00366211,0.00366211,0.00488281,0,0,0,0,0,0,299.9,1012,0,0,0,0,0,0,0,0,0,-9.18E-06,-2.70E-06,-1.46E-05,-1.27E-05,0,0,0,0,0,0,0,0,0,0,0,0,0,0,0,0,0,0,0,0,0,0,0,0,0,3008.04,-7521.06,-8703.41,0,0,0,0,0,0,0,0,0,0,0,0,0,0,0,0,0,0,0,0,0,0,0,0
4,16,0,0,0,0,0,0,299.9,198,0,0.00457764,0.00335693,0.00396729,0.00366211,0.00366211,0.00488281,0,0,0,0,0,0,299.9,1012,0,0,0,0,0,0,0,0,0,-1.01E-05,-1.46E-06,-1.40E-05,-1.20E-05,0,0,0,0,0,0,0,0,0,0,0,0,0,0,0,0,0,0,0,0,0,0,0,0,0,2959.68,-7589.02,-8608.59,0,0,0,0,0,0,0,0,0,0,0,0,0,0,0,0,0,0,0,0,0,0,0,0
4,17,0,0,0,0,0,0,299.9,198,0,0.00366211,0.00427246,0.00488281,0.00152588,0.00366211,0.00549316,0,0,0,0,0,0,299.9,1012,0,0,0,0,0,0,0,0,0,-1.22E-05,-1.59E-06,-1.31E-05,-1.13E-05,0,0,0,0,0,0,0,0,0,0,0,0,0,0,0,0,0,0,0,0,0,0,0,0,0,2911.31,-7656.98,-8513.77,0,0,0,0,0,0,0,0,0,0,0,0,0,0,0,0,0,0,0,0,0,0,0,0
4,18,0,0,0,0,0,0,299.9,198,0,0.00366211,0.00427246,0.00488281,0.00152588,0.00366211,0.00549316,0,0,0,0,0,0,299.9,1012,0,0,0,0,0,0,0,0,0,-1.13E-05,-2.13E-06,-1.34E-05,-1.08E-05,0,0,0,0,0,0,0,0,0,0,0,0,0,0,0,0,0,0,0,0,0,0,0,0,0,2861.4,-7717.74,-8429.5,0,0,0,0,0,0,0,0,0,0,0,0,0,0,0,0,0,0,0,0,0,0,0,0
4,19,0,0,0,0,0,0,299.9,198,0,0.00396729,0.00671387,-0.000305176,0.00671387,0.00305176,0.00427246,0,0,0,0,0,0,299.9,1012,0,0,0,0,0,0,0,0,0,-7.53E-06,-2.60E-06,-1.50E-05,-1.03E-05,0,0,0,0,0,0,0,0,0,0,0,0,0,0,0,0,0,0,0,0,0,0,0,0,0,2809.95,-7771.3,-8355.76,0,0,0,0,0,0,0,0,0,0,0,0,0,0,0,0,0,0,0,0,0,0,0,0
5,0,0,0,0,0,0,0,299.9,198,0,0.00396729,0.00671387,-0.000305176,0.00671387,0.00305176,0.00427246,0,0,0,0,0,0,299.9,1012,0,0,0,0,0,0,0,0,0,-4.49E-06,-3.26E-06,-1.65E-05,-9.49E-06,0,0,0,0,0,0,0,0,0,0,0,0,0,0,0,0,0,0,0,0,0,0,0,0,0,2758.49,-7824.85,-8282.03,0,0,0,0,0,0,0,0,0,0,0,0,0,0,0,0,0,0,0,0,0,0,0,0
5,1,0,0,0,0,0,0,299.9,198,0,0.00183105,0.00152588,0.00488281,0.00976562,0.00274658,0.00335693,0,0,0,0,0,0,299.9,1012,0,0,0,0,0,0,0,0,0,-3.57E-06,-3.55E-06,-1.71E-05,-8.84E-06,0,0,0,0,0,0,0,0,0,0,0,0,0,0,0,0,0,0,0,0,0,0,0,0,0,2707.04,-7878.4,-8208.29,0,0,0,0,0,0,0,0,0,0,0,0,0,0,0,0,0,0,0,0,0,0,0,0
5,2,0,0,0,0,0,0,299.9,198,0,0.00183105,0.00152588,0.00488281,0.00976562,0.00274658,0.00335693,0,0,0,0,0,0,299.9,1012,0,0,0,0,0,0,0,0,0,-3.34E-06,-2.82E-06,-1.71E-05,-9.28E-06,0,0,0,0,0,0,0,0,0,0,0,0,0,0,0,0,0,0,0,0,0,0,0,0,0,2655.58,-7931.96,-8134.56,0,0,0,0,0,0,0,0,0,0,0,0,0,0,0,0,0,0,0,0,0,0,0,0
5,3,0,0,0,0,0,0,299.9,198,0,0.00671387,0.00396729,0.00549316,0.000915527,0.00579834,0.00732422,0,0,0,0,0,0,299.9,1012,0,0,0,0,0,0,0,0,0,-3.11E-06,-2.28E-06,-1.72E-05,-1.07E-05,0,0,0,0,0,0,0,0,0,0,0,0,0,0,0,0,0,0,0,0,0,0,0,0,0,2604.13,-7985.51,-8060.83,0,0,0,0,0,0,0,0,0,0,0,0,0,0,0,0,0,0,0,0,0,0,0,0
5,4,0,0,0,0,0,0,299.9,198,0,0.00671387,0.00396729,0.00549316,0.000915527,0.00579834,0.00732422,0,0,0,0,0,0,299.9,1012,0,0,0,0,0,0,0,0,0,-3.18E-06,-3.35E-06,-1.71E-05,-1.20E-05,0,0,0,0,0,0,0,0,0,0,0,0,0,0,0,0,0,0,0,0,0,0,0,0,0,2552.67,-8039.06,-7987.1,0,0,0,0,0,0,0,0,0,0,0,0,0,0,0,0,0,0,0,0,0,0,0,0
5,5,0,0,0,0,0,0,299.9,198,0,0.00396729,0.00427246,0.00427246,0.00823975,0.00427246,0.00549316,0,0,0,0,0,0,299.9,1012,0,0,0,0,0,0,0,0,0,-3.55E-06,-5.00E-06,-1.54E-05,-1.21E-05,0,0,0,0,0,0,0,0,0,0,0,0,0,0,0,0,0,0,0,0,0,0,0,0,0,2501.22,-8092.62,-7913.36,0,0,0,0,0,0,0,0,0,0,0,0,0,0,0,0,0,0,0,0,0,0,0,0
5,6,0,0,0,0,0,0,299.9,198,0,0.00396729,0.00427246,0.00427246,0.00823975,0.00427246,0.00549316,0,0,0,0,0,0,299.9,1012,0,0,0,0,0,0,0,0,0,-4.59E-06,-5.77E-06,-1.27E-05,-1.15E-05,0,0,0,0,0,0,0,0,0,0,0,0,0,0,0,0,0,0,0,0,0,0,0,0,0,2449.76,-8146.17,-7839.63,0,0,0,0,0,0,0,0,0,0,0,0,0,0,0,0,0,0,0,0,0,0,0,0
5,7,0,0,0,0,0,0,299.9,198,0,0.00488281,0.00427246,0.00518799,0.00213623,0.00366211,0.00518799,0,0,0,0,0,0,299.9,1012,0,0,0,0,0,0,0,0,0,-7.13E-06,-5.78E-06,-1.09E-05,-1.18E-05,0,0,0,0,0,0,0,0,0,0,0,0,0,0,0,0,0,0,0,0,0,0,0,0,0,2398.31,-8199.73,-7765.9,0,0,0,0,0,0,0,0,0,0,0,0,0,0,0,0,0,0,0,0,0,0,0,0
5,8,0,0,0,0,0,0,299.9,198,0,0.00488281,0.00427246,0.00518799,0.00213623,0.00366211,0.00518799,0,0,0,0,0,0,299.9,1012,0,0,0,0,0,0,0,0,0,-1.02E-05,-5.40E-06,-1.03E-05,-1.27E-05,0,0,0,0,0,0,0,0,0,0,0,0,0,0,0,0,0,0,0,0,0,0,0,0,0,2346.85,-8253.28,-7692.16,0,0,0,0,0,0,0,0,0,0,0,0,0,0,0,0,0,0,0,0,0,0,0,0
5,9,0,0,0,0,0,0,299.9,198,0,0.00396729,0.00335693,0.00518799,0.00305176,0.00335693,0.00579834,0,0,0,0,0,0,299.9,1012,0,0,0,0,0,0,0,0,0,-1.17E-05,-4.90E-06,-9.59E-06,-1.32E-05,0,0,0,0,0,0,0,0,0,0,0,0,0,0,0,0,0,0,0,0,0,0,0,0,0,2295.39,-8306.83,-7618.43,0,0,0,0,0,0,0,0,0,0,0,0,0,0,0,0,0,0,0,0,0,0,0,0
5,10,0,0,0,0,0,0,299.9,198,0,0.00396729,0.00335693,0.00518799,0.00305176,0.00335693,0.00579834,0,0,0,0,0,0,299.9,1012,0,0,0,0,0,0,0,0,0,-1.18E-05,-5.36E-06,-8.86E-06,-1.29E-05,0,0,0,0,0,0,0,0,0,0,0,0,0,0,0,0,0,0,0,0,0,0,0,0,0,2243.94,-8360.39,-7544.7,0,0,0,0,0,0,0,0,0,0,0,0,0,0,0,0,0,0,0,0,0,0,0,0
5,11,0,0,0,0,0,0,299.9,198,0,0.00335693,0.00427246,0.00488281,0.00396729,0.00244141,0.00610352,0,0,0,0,0,0,299.9,1012,0,0,0,0,0,0,0,0,0,-1.19E-05,-6.95E-06,-8.92E-06,-1.30E-05,0,0,0,0,0,0,0,0,0,0,0,0,0,0,0,0,0,0,0,0,0,0,0,0,0,2192.48,-8413.94,-7470.96,0,0,0,0,0,0,0,0,0,0,0,0,0,0,0,0,0,0,0,0,0,0,0,0
5,12,0,0,0,0,0,0,299.9,198,0,0.00335693,0.00427246,0.00488281,0.00396729,0.00244141,0.00610352,0,0,0,0,0,0,299.9,1012,0,0,0,0,0,0,0,0,0,-1.26E-05,-7.59E-06,-9.03E-06,-1.45E-05,0,0,0,0,0,0,0,0,0,0,0,0,0,0,0,0,0,0,0,0,0,0,0,0,0,2171.51,-8442.22,-7422.48,0,0,0,0,0,0,0,0,0,0,0,0,0,0,0,0,0,0,0,0,0,0,0,0
5,13,0,0,0,0,0,0,299.9,198,0,0.00366211,0.00396729,0.00427246,0.00518799,0.00305176,0.00640869,0,0,0,0,0,0,299.9,1012,0,0,0,0,0,0,0,0,0,-1.33E-05,-7.00E-06,-8.49E-06,-1.71E-05,0,0,0,0,0,0,0,0,0,0,0,0,0,0,0,0,0,0,0,0,0,0,0,0,0,2150.54,-8470.5,-7374,0,0,0,0,0,0,0,0,0,0,0,0,0,0,0,0,0,0,0,0,0,0,0,0
5,14,0,0,0,0,0,0,299.9,198,0,0.00366211,0.00396729,0.00427246,0.00518799,0.00305176,0.00640869,0,0,0,0,0,0,299.9,1012,0,0,0,0,0,0,0,0,0,-1.34E-05,-8.30E-06,-7.87E-06,-1.83E-05,0,0,0,0,0,0,0,0,0,0,0,0,0,0,0,0,0,0,0,0,0,0,0,0,0,2129.57,-8498.78,-7325.51,0,0,0,0,0,0,0,0,0,0,0,0,0,0,0,0,0,0,0,0,0,0,0,0
5,15,0,0,0,0,0,0,299.9,198,0,0.00396729,0.00396729,0.00305176,0.00305176,0.00335693,0.00610352,0,0,0,0,0,0,299.9,1012,0,0,0,0,0,0,0,0,0,-1.30E-05,-1.13E-05,-7.31E-06,-1.71E-05,0,0,0,0,0,0,0,0,0,0,0,0,0,0,0,0,0,0,0,0,0,0,0,0,0,2108.6,-8527.06,-7277.03,0,0,0,0,0,0,0,0,0,0,0,0,0,0,0,0,0,0,0,0,0,0,0,0
5,16,0,0,0,0,0,0,299.9,198,0,0.00396729,0.00396729,0.00305176,0.00305176,0.00335693,0.00610352,0,0,0,0,0,0,299.9,1012,0,0,0,0,0,0,0,0,0,-1.30E-05,-1.21E-05,-6.37E-06,-1.48E-05,0,0,0,0,0,0,0,0,0,0,0,0,0,0,0,0,0,0,0,0,0,0,0,0,0,2087.63,-8555.34,-7228.54,0,0,0,0,0,0,0,0,0,0,0,0,0,0,0,0,0,0,0,0,0,0,0,0
5,17,0,0,0,0,0,0,299.9,198,0,0.00335693,0.00518799,0.00488281,0.000610352,0.00396729,0.00549316,0,0,0,0,0,0,299.9,1012,0,0,0,0,0,0,0,0,0,-1.45E-05,-1.06E-05,-5.70E-06,-1.33E-05,0,0,0,0,0,0,0,0,0,0,0,0,0,0,0,0,0,0,0,0,0,0,0,0,0,2066.65,-8583.62,-7180.06,0,0,0,0,0,0,0,0,0,0,0,0,0,0,0,0,0,0,0,0,0,0,0,0
5,18,0,0,0,0,0,0,299.9,198,0,0.00335693,0.00518799,0.00488281,0.000610352,0.00396729,0.00549316,0,0,0,0,0,0,299.9,1012,0,0,0,0,0,0,0,0,0,-1.71E-05,-1.05E-05,-6.39E-06,-1.32E-05,0,0,0,0,0,0,0,0,0,0,0,0,0,0,0,0,0,0,0,0,0,0,0,0,0,2045.68,-8611.9,-7131.58,0,0,0,0,0,0,0,0,0,0,0,0,0,0,0,0,0,0,0,0,0,0,0,0
5,19,0,0,0,0,0,0,299.9,198,0,0.00396729,0.00549316,0.00610352,0.00457764,0.00457764,0.00610352,0,0,0,0,0,0,299.9,1012,0,0,0,0,0,0,0,0,0,-1.94E-05,-1.15E-05,-7.85E-06,-1.34E-05,0,0,0,0,0,0,0,0,0,0,0,0,0,0,0,0,0,0,0,0,0,0,0,0,0,2024.71,-8640.18,-7083.09,0,0,0,0,0,0,0,0,0,0,0,0,0,0,0,0,0,0,0,0,0,0,0,0
6,0,0,0,0,0,0,0,299.9,198,0,0.00396729,0.00549316,0.00610352,0.00457764,0.00457764,0.00610352,0,0,0,0,0,0,299.9,1012,0,0,0,0,0,0,0,0,0,-2.04E-05,-1.15E-05,-8.90E-06,-1.30E-05,0,0,0,0,0,0,0,0,0,0,0,0,0,0,0,0,0,0,0,0,0,0,0,0,0,2003.74,-8668.46,-7034.61,0,0,0,0,0,0,0,0,0,0,0,0,0,0,0,0,0,0,0,0,0,0,0,0
6,1,0,0,0,0,0,0,299.9,198,0,0.00335693,0.00518799,0.00396729,0.0119019,0.00274658,0.00488281,0,0,0,0,0,0,299.9,1012,0,0,0,0,0,0,0,0,0,-2.10E-05,-1.05E-05,-9.55E-06,-1.20E-05,0,0,0,0,0,0,0,0,0,0,0,0,0,0,0,0,0,0,0,0,0,0,0,0,0,1982.77,-8696.74,-6986.13,0,0,0,0,0,0,0,0,0,0,0,0,0,0,0,0,0,0,0,0,0,0,0,0
6,2,0,0,0,0,0,0,299.9,198,0,0.00335693,0.00518799,0.00396729,0.0119019,0.00274658,0.00488281,0,0,0,0,0,0,299.9,1012,0,0,0,0,0,0,0,0,0,-2.21E-05,-9.92E-06,-1.02E-05,-1.09E-05,0,0,0,0,0,0,0,0,0,0,0,0,0,0,0,0,0,0,0,0,0,0,0,0,0,1961.79,-8725.02,-6937.64,0,0,0,0,0,0,0,0,0,0,0,0,0,0,0,0,0,0,0,0,0,0,0,0
6,3,0,0,0,0,0,0,299.9,198,0,0.00488281,0.00732422,0.00549316,0.000610352,0.00274658,0.00549316,0,0,0,0,0,0,299.9,1012,0,0,0,0,0,0,0,0,0,-2.30E-05,-9.66E-06,-1.07E-05,-1.02E-05,0,0,0,0,0,0,0,0,0,0,0,0,0,0,0,0,0,0,0,0,0,0,0,0,0,1940.82,-8753.3,-6889.16,0,0,0,0,0,0,0,0,0,0,0,0,0,0,0,0,0,0,0,0,0,0,0,0
6,4,0,0,0,0,0,0,299.9,198,0,0.00488281,0.00732422,0.00549316,0.000610352,0.00274658,0.00549316,0,0,0,0,0,0,299.9,1012,0,0,0,0,0,0,0,0,0,-2.33E-05,-9.14E-06,-1.12E-05,-1.01E-05,0,0,0,0,0,0,0,0,0,0,0,0,0,0,0,0,0,0,0,0,0,0,0,0,0,1919.85,-8781.58,-6840.67,0,0,0,0,0,0,0,0,0,0,0,0,0,0,0,0,0,0,0,0,0,0,0,0
6,5,0,0,0,0,0,0,299.9,198,0,0.00305176,0.00610352,0.00488281,0.00396729,0.00213623,0.00579834,0,0,0,0,0,0,299.9,1012,0,0,0,0,0,0,0,0,0,-2.36E-05,-8.16E-06,-1.17E-05,-1.05E-05,0,0,0,0,0,0,0,0,0,0,0,0,0,0,0,0,0,0,0,0,0,0,0,0,0,1903.34,-8808.13,-6789.36,0,0,0,0,0,0,0,0,0,0,0,0,0,0,0,0,0,0,0,0,0,0,0,0
6,6,0,0,0,0,0,0,299.9,198,0,0.00305176,0.00610352,0.00488281,0.00396729,0.00213623,0.00579834,0,0,0,0,0,0,299.9,1012,0,0,0,0,0,0,0,0,0,-2.35E-05,-7.85E-06,-1.21E-05,-1.05E-05,0,0,0,0,0,0,0,0,0,0,0,0,0,0,0,0,0,0,0,0,0,0,0,0,0,1891.28,-8832.95,-6735.23,0,0,0,0,0,0,0,0,0,0,0,0,0,0,0,0,0,0,0,0,0,0,0,0
6,7,0,0,0,0,0,0,299.9,198,0,0.00396729,0.00396729,0.00518799,0.00366211,0.00335693,0.00610352,0,0,0,0,0,0,299.9,1012,0,0,0,0,0,0,0,0,0,-2.23E-05,-9.16E-06,-1.19E-05,-9.47E-06,0,0,0,0,0,0,0,0,0,0,0,0,0,0,0,0,0,0,0,0,0,0,0,0,0,1879.22,-8857.77,-6681.09,0,0,0,0,0,0,0,0,0,0,0,0,0,0,0,0,0,0,0,0,0,0,0,0
6,8,0,0,0,0,0,0,299.9,198,0,0.00396729,0.00396729,0.00518799,0.00366211,0.00335693,0.00610352,0,0,0,0,0,0,299.9,1012,0,0,0,0,0,0,0,0,0,-2.12E-05,-1.09E-05,-1.14E-05,-8.25E-06,0,0,0,0,0,0,0,0,0,0,0,0,0,0,0,0,0,0,0,0,0,0,0,0,0,1867.17,-8882.59,-6626.95,0,0,0,0,0,0,0,0,0,0,0,0,0,0,0,0,0,0,0,0,0,0,0,0
6,9,0,0,0,0,0,0,299.9,198,0,0.00396729,0.00457764,0.00488281,0.00335693,0.00366211,0.00488281,0,0,0,0,0,0,299.9,1012,0,0,0,0,0,0,0,0,0,-2.13E-05,-1.19E-05,-1.09E-05,-7.56E-06,0,0,0,0,0,0,0,0,0,0,0,0,0,0,0,0,0,0,0,0,0,0,0,0,0,1855.11,-8907.41,-6572.81,0,0,0,0,0,0,0,0,0,0,0,0,0,0,0,0,0,0,0,0,0,0,0,0
6,10,0,0,0,0,0,0,299.9,198,0,0.00396729,0.00457764,0.00488281,0.00335693,0.00366211,0.00488281,0,0,0,0,0,0,299.9,1012,0,0,0,0,0,0,0,0,0,-2.15E-05,-1.23E-05,-1.01E-05,-6.48E-06,0,0,0,0,0,0,0,0,0,0,0,0,0,0,0,0,0,0,0,0,0,0,0,0,0,1843.05,-8932.23,-6518.67,0,0,0,0,0,0,0,0,0,0,0,0,0,0,0,0,0,0,0,0,0,0,0,0
6,11,0,0,0,0,0,0,299.9,198,0,0.00366211,0.00488281,0.00518799,0.00427246,0.00305176,0.00549316,0,0,0,0,0,0,299.9,1012,0,0,0,0,0,0,0,0,0,-2.03E-05,-1.24E-05,-9.21E-06,-4.77E-06,0,0,0,0,0,0,0,0,0,0,0,0,0,0,0,0,0,0,0,0,0,0,0,0,0,1830.99,-8957.05,-6464.54,0,0,0,0,0,0,0,0,0,0,0,0,0,0,0,0,0,0,0,0,0,0,0,0
6,12,0,0,0,0,0,0,299.9,198,0,0.00366211,0.00488281,0.00518799,0.00427246,0.00305176,0.00549316,0,0,0,0,0,0,299.9,1012,0,0,0,0,0,0,0,0,0,-1.82E-05,-1.22E-05,-9.16E-06,-3.69E-06,0,0,0,0,0,0,0,0,0,0,0,0,0,0,0,0,0,0,0,0,0,0,0,0,0,1818.94,-8981.87,-6410.4,0,0,0,0,0,0,0,0,0,0,0,0,0,0,0,0,0,0,0,0,0,0,0,0
6,13,0,0,0,0,0,0,299.9,198,0,0.00488281,0.00396729,0.00457764,0.00244141,0.00305176,0.00610352,0,0,0,0,0,0,299.9,1012,0,0,0,0,0,0,0,0,0,-1.67E-05,-1.23E-05,-9.82E-06,-3.34E-06,0,0,0,0,0,0,0,0,0,0,0,0,0,0,0,0,0,0,0,0,0,0,0,0,0,1806.88,-9006.69,-6356.26,0,0,0,0,0,0,0,0,0,0,0,0,0,0,0,0,0,0,0,0,0,0,0,0
6,14,0,0,0,0,0,0,299.9,198,0,0.00488281,0.00396729,0.00457764,0.00244141,0.00305176,0.00610352,0,0,0,0,0,0,299.9,1012,0,0,0,0,0,0,0,0,0,-1.68E-05,-1.25E-05,-1.02E-05,-2.44E-06,0,0,0,0,0,0,0,0,0,0,0,0,0,0,0,0,0,0,0,0,0,0,0,0,0,1794.82,-9031.51,-6302.12,0,0,0,0,0,0,0,0,0,0,0,0,0,0,0,0,0,0,0,0,0,0,0,0
6,15,0,0,0,0,0,0,299.9,198,0,0.00457764,0.00366211,0.00549316,0.00427246,0.00305176,0.00640869,0,0,0,0,0,0,299.9,1012,0,0,0,0,0,0,0,0,0,-1.77E-05,-1.24E-05,-1.03E-05,-9.28E-07,0,0,0,0,0,0,0,0,0,0,0,0,0,0,0,0,0,0,0,0,0,0,0,0,0,1782.77,-9056.33,-6247.99,0,0,0,0,0,0,0,0,0,0,0,0,0,0,0,0,0,0,0,0,0,0,0,0
6,16,0,0,0,0,0,0,299.9,198,0,0.00457764,0.00366211,0.00549316,0.00427246,0.00305176,0.00640869,0,0,0,0,0,0,299.9,1012,0,0,0,0,0,0,0,0,0,-1.79E-05,-1.22E-05,-1.08E-05,1.56E-07,0,0,0,0,0,0,0,0,0,0,0,0,0,0,0,0,0,0,0,0,0,0,0,0,0,1770.71,-9081.15,-6193.85,0,0,0,0,0,0,0,0,0,0,0,0,0,0,0,0,0,0,0,0,0,0,0,0
6,17,0,0,0,0,0,0,299.9,198,0,0.00427246,0.00549316,0.00488281,0.00427246,0.00366211,0.00518799,0,0,0,0,0,0,299.9,1012,0,0,0,0,0,0,0,0,0,-1.67E-05,-1.25E-05,-1.17E-05,3.43E-07,0,0,0,0,0,0,0,0,0,0,0,0,0,0,0,0,0,0,0,0,0,0,0,0,0,1758.65,-9105.97,-6139.71,0,0,0,0,0,0,0,0,0,0,0,0,0,0,0,0,0,0,0,0,0,0,0,0
6,18,0,0,0,0,0,0,299.9,198,0,0.00427246,0.00549316,0.00488281,0.00427246,0.00366211,0.00518799,0,0,0,0,0,0,299.9,1012,0,0,0,0,0,0,0,0,0,-1.45E-05,-1.34E-05,-1.20E-05,-6.02E-08,0,0,0,0,0,0,0,0,0,0,0,0,0,0,0,0,0,0,0,0,0,0,0,0,0,1746.59,-9130.79,-6085.57,0,0,0,0,0,0,0,0,0,0,0,0,0,0,0,0,0,0,0,0,0,0,0,0
6,19,0,0,0,0,0,0,299.9,198,0,0.00427246,0.00610352,0.00396729,-0.00427246,0.00671387,0.00457764,0,0,0,0,0,0,299.9,1012,0,0,0,0,0,0,0,0,0,-1.24E-05,-1.39E-05,-1.14E-05,-5.76E-07,0,0,0,0,0,0,0,0,0,0,0,0,0,0,0,0,0,0,0,0,0,0,0,0,0,1721.06,-9170.88,-6008.19,0,0,0,0,0,0,0,0,0,0,0,0,0,0,0,0,0,0,0,0,0,0,0,0
7,0,0,0,0,0,0,0,299.9,198,0,0.00427246,0.00610352,0.00396729,-0.00427246,0.00671387,0.00457764,0,0,0,0,0,0,299.9,1012,0,0,0,0,0,0,0,0,0,-1.07E-05,-1.36E-05,-1.03E-05,-1.10E-06,0,0,0,0,0,0,0,0,0,0,0,0,0,0,0,0,0,0,0,0,0,0,0,0,0,1695.52,-9210.96,-5930.8,0,0,0,0,0,0,0,0,0,0,0,0,0,0,0,0,0,0,0,0,0,0,0,0
7,1,0,0,0,0,0,0,299.9,198,0,0.00305176,0.00915527,0.00396729,0.00762939,0.00610352,0.00610352,0,0,0,0,0,0,299.9,1012,0,0,0,0,0,0,0,0,0,-9.84E-06,-1.31E-05,-1.00E-05,-1.93E-06,0,0,0,0,0,0,0,0,0,0,0,0,0,0,0,0,0,0,0,0,0,0,0,0,0,1669.98,-9251.05,-5853.41,0,0,0,0,0,0,0,0,0,0,0,0,0,0,0,0,0,0,0,0,0,0,0,0
7,2,0,0,0,0,0,0,299.9,198,0,0.00305176,0.00915527,0.00396729,0.00762939,0.00610352,0.00610352,0,0,0,0,0,0,299.9,1012,0,0,0,0,0,0,0,0,0,-9.87E-06,-1.27E-05,-1.04E-05,-3.03E-06,0,0,0,0,0,0,0,0,0,0,0,0,0,0,0,0,0,0,0,0,0,0,0,0,0,1644.45,-9291.14,-5776.03,0,0,0,0,0,0,0,0,0,0,0,0,0,0,0,0,0,0,0,0,0,0,0,0
7,3,0,0,0,0,0,0,299.9,198,0,0.00396729,0.00305176,0.00366211,0.00915527,0.00549316,0.00610352,0,0,0,0,0,0,299.9,1012,0,0,0,0,0,0,0,0,0,-1.05E-05,-1.20E-05,-1.00E-05,-3.79E-06,0,0,0,0,0,0,0,0,0,0,0,0,0,0,0,0,0,0,0,0,0,0,0,0,0,1618.91,-9331.23,-5698.64,0,0,0,0,0,0,0,0,0,0,0,0,0,0,0,0,0,0,0,0,0,0,0,0
7,4,0,0,0,0,0,0,299.9,198,0,0.00396729,0.00305176,0.00366211,0.00915527,0.00549316,0.00610352,0,0,0,0,0,0,299.9,1012,0,0,0,0,0,0,0,0,0,-1.11E-05,-1.10E-05,-9.02E-06,-3.66E-06,0,0,0,0,0,0,0,0,0,0,0,0,0,0,0,0,0,0,0,0,0,0,0,0,0,1593.37,-9371.31,-5621.26,0,0,0,0,0,0,0,0,0,0,0,0,0,0,0,0,0,0,0,0,0,0,0,0
7,5,0,0,0,0,0,0,299.9,198,0,0.00396729,0.00549316,0.00671387,0.00244141,0.00396729,0.00610352,0,0,0,0,0,0,299.9,1012,0,0,0,0,0,0,0,0,0,-1.15E-05,-1.01E-05,-8.94E-06,-2.96E-06,0,0,0,0,0,0,0,0,0,0,0,0,0,0,0,0,0,0,0,0,0,0,0,0,0,1567.84,-9411.4,-5543.87,0,0,0,0,0,0,0,0,0,0,0,0,0,0,0,0,0,0,0,0,0,0,0,0
7,6,0,0,0,0,0,0,299.9,198,0,0.00396729,0.00549316,0.00671387,0.00244141,0.00396729,0.00610352,0,0,0,0,0,0,299.9,1012,0,0,0,0,0,0,0,0,0,-1.27E-05,-9.26E-06,-1.04E-05,-3.03E-06,0,0,0,0,0,0,0,0,0,0,0,0,0,0,0,0,0,0,0,0,0,0,0,0,0,1542.3,-9451.49,-5466.48,0,0,0,0,0,0,0,0,0,0,0,0,0,0,0,0,0,0,0,0,0,0,0,0
7,7,0,0,0,0,0,0,299.9,198,0,0.00488281,0.00366211,0.00457764,0.00152588,0.00335693,0.00579834,0,0,0,0,0,0,299.9,1012,0,0,0,0,0,0,0,0,0,-1.48E-05,-8.42E-06,-1.23E-05,-4.64E-06,0,0,0,0,0,0,0,0,0,0,0,0,0,0,0,0,0,0,0,0,0,0,0,0,0,1516.76,-9491.57,-5389.1,0,0,0,0,0,0,0,0,0,0,0,0,0,0,0,0,0,0,0,0,0,0,0,0
7,8,0,0,0,0,0,0,299.9,198,0,0.00488281,0.00366211,0.00457764,0.00152588,0.00335693,0.00579834,0,0,0,0,0,0,299.9,1012,0,0,0,0,0,0,0,0,0,-1.55E-05,-7.75E-06,-1.23E-05,-6.73E-06,0,0,0,0,0,0,0,0,0,0,0,0,0,0,0,0,0,0,0,0,0,0,0,0,0,1491.22,-9531.66,-5311.71,0,0,0,0,0,0,0,0,0,0,0,0,0,0,0,0,0,0,0,0,0,0,0,0
7,9,0,0,0,0,0,0,299.9,198,0,0.00396729,0.00427246,0.00488281,0.00183105,0.00335693,0.00579834,0,0,0,0,0,0,299.9,1012,0,0,0,0,0,0,0,0,0,-1.35E-05,-7.32E-06,-1.04E-05,-8.04E-06,0,0,0,0,0,0,0,0,0,0,0,0,0,0,0,0,0,0,0,0,0,0,0,0,0,1465.69,-9571.75,-5234.32,0,0,0,0,0,0,0,0,0,0,0,0,0,0,0,0,0,0,0,0,0,0,0,0
7,10,0,0,0,0,0,0,299.9,198,0,0.00396729,0.00427246,0.00488281,0.00183105,0.00335693,0.00579834,0,0,0,0,0,0,299.9,1012,0,0,0,0,0,0,0,0,0,-1.04E-05,-6.67E-06,-9.58E-06,-8.34E-06,0,0,0,0,0,0,0,0,0,0,0,0,0,0,0,0,0,0,0,0,0,0,0,0,0,1440.15,-9611.83,-5156.94,0,0,0,0,0,0,0,0,0,0,0,0,0,0,0,0,0,0,0,0,0,0,0,0
7,11,0,0,0,0,0,0,299.9,198,0,0.00274658,0.00488281,0.00396729,0.00366211,0.00396729,0.00671387,0,0,0,0,0,0,299.9,1012,0,0,0,0,0,0,0,0,0,-8.15E-06,-5.76E-06,-1.09E-05,-7.75E-06,0,0,0,0,0,0,0,0,0,0,0,0,0,0,0,0,0,0,0,0,0,0,0,0,0,1414.61,-9651.92,-5079.55,0,0,0,0,0,0,0,0,0,0,0,0,0,0,0,0,0,0,0,0,0,0,0,0
7,12,0,0,0,0,0,0,299.9,198,0,0.00274658,0.00488281,0.00396729,0.00366211,0.00396729,0.00671387,0,0,0,0,0,0,299.9,1012,0,0,0,0,0,0,0,0,0,-7.19E-06,-5.25E-06,-1.19E-05,-6.69E-06,0,0,0,0,0,0,0,0,0,0,0,0,0,0,0,0,0,0,0,0,0,0,0,0,0,1386.03,-9698.68,-4999.71,0,0,0,0,0,0,0,0,0,0,0,0,0,0,0,0,0,0,0,0,0,0,0,0
7,13,0,0,0,0,0,0,299.9,198,0,0.00244141,0.00518799,0.00396729,0.0012207,0.00335693,0.00579834,0,0,0,0,0,0,299.9,1012,0,0,0,0,0,0,0,0,0,-7.58E-06,-5.88E-06,-1.14E-05,-6.20E-06,0,0,0,0,0,0,0,0,0,0,0,0,0,0,0,0,0,0,0,0,0,0,0,0,0,1354.39,-9752.12,-4917.41,0,0,0,0,0,0,0,0,0,0,0,0,0,0,0,0,0,0,0,0,0,0,0,0
7,14,0,0,0,0,0,0,299.9,198,0,0.00244141,0.00518799,0.00396729,0.0012207,0.00335693,0.00579834,0,0,0,0,0,0,299.9,1012,0,0,0,0,0,0,0,0,0,-8.84E-06,-7.51E-06,-1.04E-05,-6.85E-06,0,0,0,0,0,0,0,0,0,0,0,0,0,0,0,0,0,0,0,0,0,0,0,0,0,1322.75,-9805.56,-4835.12,0,0,0,0,0,0,0,0,0,0,0,0,0,0,0,0,0,0,0,0,0,0,0,0
7,15,0,0,0,0,0,0,299.9,198,0,0.00427246,0.00396729,0.00396729,0.00244141,0.00244141,0.00640869,0,0,0,0,0,0,299.9,1012,0,0,0,0,0,0,0,0,0,-1.02E-05,-8.75E-06,-9.99E-06,-7.73E-06,0,0,0,0,0,0,0,0,0,0,0,0,0,0,0,0,0,0,0,0,0,0,0,0,0,1291.11,-9858.99,-4752.82,0,0,0,0,0,0,0,0,0,0,0,0,0,0,0,0,0,0,0,0,0,0,0,0
7,16,0,0,0,0,0,0,299.9,198,0,0.00427246,0.00396729,0.00396729,0.00244141,0.00244141,0.00640869,0,0,0,0,0,0,299.9,1012,0,0,0,0,0,0,0,0,0,-1.18E-05,-8.49E-06,-1.06E-05,-7.92E-06,0,0,0,0,0,0,0,0,0,0,0,0,0,0,0,0,0,0,0,0,0,0,0,0,0,1259.47,-9912.43,-4670.53,0,0,0,0,0,0,0,0,0,0,0,0,0,0,0,0,0,0,0,0,0,0,0,0
7,17,0,0,0,0,0,0,299.9,198,0,0.00366211,0.00488281,0.00488281,0.00396729,0.00396729,0.00579834,0,0,0,0,0,0,299.9,1012,0,0,0,0,0,0,0,0,0,-1.32E-05,-7.39E-06,-1.13E-05,-7.94E-06,0,0,0,0,0,0,0,0,0,0,0,0,0,0,0,0,0,0,0,0,0,0,0,0,0,1227.83,-9965.87,-4588.23,0,0,0,0,0,0,0,0,0,0,0,0,0,0,0,0,0,0,0,0,0,0,0,0
7,18,0,0,0,0,0,0,299.9,198,0,0.00366211,0.00488281,0.00488281,0.00396729,0.00396729,0.00579834,0,0,0,0,0,0,299.9,1012,0,0,0,0,0,0,0,0,0,-1.33E-05,-6.61E-06,-1.13E-05,-8.18E-06,0,0,0,0,0,0,0,0,0,0,0,0,0,0,0,0,0,0,0,0,0,0,0,0,0,1196.19,-10019.3,-4505.94,0,0,0,0,0,0,0,0,0,0,0,0,0,0,0,0,0,0,0,0,0,0,0,0
7,19,0,0,0,0,0,0,299.9,198,0,0.00488281,0.00366211,0.00274658,0.00305176,0.00305176,0.00640869,0,0,0,0,0,0,299.9,1012,0,0,0,0,0,0,0,0,0,-1.24E-05,-6.47E-06,-1.11E-05,-7.94E-06,0,0,0,0,0,0,0,0,0,0,0,0,0,0,0,0,0,0,0,0,0,0,0,0,0,1164.56,-10072.7,-4423.64,0,0,0,0,0,0,0,0,0,0,0,0,0,0,0,0,0,0,0,0,0,0,0,0
8,0,0,0,0,0,0,0,299.9,198,0,0.00488281,0.00366211,0.00274658,0.00305176,0.00305176,0.00640869,0,0,0,0,0,0,299.9,1012,0,0,0,0,0,0,0,0,0,-1.20E-05,-6.75E-06,-1.15E-05,-7.46E-06,0,0,0,0,0,0,0,0,0,0,0,0,0,0,0,0,0,0,0,0,0,0,0,0,0,1132.92,-10126.2,-4341.34,0,0,0,0,0,0,0,0,0,0,0,0,0,0,0,0,0,0,0,0,0,0,0,0
8,1,0,0,0,0,0,0,299.9,198,0,0.00396729,0.00213623,0.00457764,-0.00152588,0.00549316,0.00274658,0,0,0,0,0,0,299.9,1012,0,0,0,0,0,0,0,0,0,-1.23E-05,-7.33E-06,-1.22E-05,-7.91E-06,0,0,0,0,0,0,0,0,0,0,0,0,0,0,0,0,0,0,0,0,0,0,0,0,0,1101.28,-10179.6,-4259.05,0,0,0,0,0,0,0,0,0,0,0,0,0,0,0,0,0,0,0,0,0,0,0,0
8,2,0,0,0,0,0,0,299.9,198,0,0.00396729,0.00213623,0.00457764,-0.00152588,0.00549316,0.00274658,0,0,0,0,0,0,299.9,1012,0,0,0,0,0,0,0,0,0,-1.26E-05,-8.30E-06,-1.31E-05,-8.74E-06,0,0,0,0,0,0,0,0,0,0,0,0,0,0,0,0,0,0,0,0,0,0,0,0,0,1069.64,-10233.1,-4176.75,0,0,0,0,0,0,0,0,0,0,0,0,0,0,0,0,0,0,0,0,0,0,0,0
8,3,0,0,0,0,0,0,299.9,198,0,0.00305176,0.00793457,0.00244141,0.00244141,0.000610352,0.00427246,0,0,0,0,0,0,299.9,1012,0,0,0,0,0,0,0,0,0,-1.27E-05,-9.49E-06,-1.49E-05,-8.40E-06,0,0,0,0,0,0,0,0,0,0,0,0,0,0,0,0,0,0,0,0,0,0,0,0,0,1038,-10286.5,-4094.46,0,0,0,0,0,0,0,0,0,0,0,0,0,0,0,0,0,0,0,0,0,0,0,0
8,4,0,0,0,0,0,0,299.9,198,0,0.00305176,0.00793457,0.00244141,0.00244141,0.000610352,0.00427246,0,0,0,0,0,0,299.9,1012,0,0,0,0,0,0,0,0,0,-1.34E-05,-1.01E-05,-1.61E-05,-7.07E-06,0,0,0,0,0,0,0,0,0,0,0,0,0,0,0,0,0,0,0,0,0,0,0,0,0,1006.36,-10339.9,-4012.16,0,0,0,0,0,0,0,0,0,0,0,0,0,0,0,0,0,0,0,0,0,0,0,0
8,5,0,0,0,0,0,0,299.9,198,0,0.00244141,0.00396729,0.00610352,0.00640869,0.00457764,0.00427246,0,0,0,0,0,0,299.9,1012,0,0,0,0,0,0,0,0,0,-1.52E-05,-9.85E-06,-1.55E-05,-6.07E-06,0,0,0,0,0,0,0,0,0,0,0,0,0,0,0,0,0,0,0,0,0,0,0,0,0,974.724,-10393.4,-3929.86,0,0,0,0,0,0,0,0,0,0,0,0,0,0,0,0,0,0,0,0,0,0,0,0
8,6,0,0,0,0,0,0,299.9,198,0,0.00244141,0.00396729,0.00610352,0.00640869,0.00457764,0.00427246,0,0,0,0,0,0,299.9,1012,0,0,0,0,0,0,0,0,0,-1.78E-05,-1.05E-05,-1.48E-05,-5.96E-06,0,0,0,0,0,0,0,0,0,0,0,0,0,0,0,0,0,0,0,0,0,0,0,0,0,947.19,-10452.7,-3857.35,0,0,0,0,0,0,0,0,0,0,0,0,0,0,0,0,0,0,0,0,0,0,0,0
8,7,0,0,0,0,0,0,299.9,198,0,0.00396729,0.00396729,0.00518799,0.00335693,0.00335693,0.00610352,0,0,0,0,0,0,299.9,1012,0,0,0,0,0,0,0,0,0,-2.02E-05,-1.28E-05,-1.56E-05,-6.17E-06,0,0,0,0,0,0,0,0,0,0,0,0,0,0,0,0,0,0,0,0,0,0,0,0,0,919.656,-10512,-3784.84,0,0,0,0,0,0,0,0,0,0,0,0,0,0,0,0,0,0,0,0,0,0,0,0
8,8,0,0,0,0,0,0,299.9,198,0,0.00396729,0.00396729,0.00518799,0.00335693,0.00335693,0.00610352,0,0,0,0,0,0,299.9,1012,0,0,0,0,0,0,0,0,0,-2.09E-05,-1.49E-05,-1.72E-05,-5.75E-06,0,0,0,0,0,0,0,0,0,0,0,0,0,0,0,0,0,0,0,0,0,0,0,0,0,892.122,-10571.4,-3712.32,0,0,0,0,0,0,0,0,0,0,0,0,0,0,0,0,0,0,0,0,0,0,0,0
8,9,0,0,0,0,0,0,299.9,198,0,0.00427246,0.00549316,0.00427246,0.00335693,0.00366211,0.00549316,0,0,0,0,0,0,299.9,1012,0,0,0,0,0,0,0,0,0,-1.94E-05,-1.51E-05,-1.85E-05,-4.72E-06,0,0,0,0,0,0,0,0,0,0,0,0,0,0,0,0,0,0,0,0,0,0,0,0,0,864.589,-10630.7,-3639.81,0,0,0,0,0,0,0,0,0,0,0,0,0,0,0,0,0,0,0,0,0,0,0,0
8,10,0,0,0,0,0,0,299.9,198,0,0.00427246,0.00549316,0.00427246,0.00335693,0.00366211,0.00549316,0,0,0,0,0,0,299.9,1012,0,0,0,0,0,0,0,0,0,-1.64E-05,-1.37E-05,-1.86E-05,-4.17E-06,0,0,0,0,0,0,0,0,0,0,0,0,0,0,0,0,0,0,0,0,0,0,0,0,0,837.055,-10690,-3567.3,0,0,0,0,0,0,0,0,0,0,0,0,0,0,0,0,0,0,0,0,0,0,0,0
8,11,0,0,0,0,0,0,299.9,198,0,0.00457764,0.00457764,0.00610352,0.00457764,0.00305176,0.00488281,0,0,0,0,0,0,299.9,1012,0,0,0,0,0,0,0,0,0,-1.38E-05,-1.19E-05,-1.75E-05,-4.47E-06,0,0,0,0,0,0,0,0,0,0,0,0,0,0,0,0,0,0,0,0,0,0,0,0,0,809.521,-10749.4,-3494.78,0,0,0,0,0,0,0,0,0,0,0,0,0,0,0,0,0,0,0,0,0,0,0,0
8,12,0,0,0,0,0,0,299.9,198,0,0.00457764,0.00457764,0.00610352,0.00457764,0.00305176,0.00488281,0,0,0,0,0,0,299.9,1012,0,0,0,0,0,0,0,0,0,-1.26E-05,-1.11E-05,-1.58E-05,-4.94E-06,0,0,0,0,0,0,0,0,0,0,0,0,0,0,0,0,0,0,0,0,0,0,0,0,0,781.987,-10808.7,-3422.27,0,0,0,0,0,0,0,0,0,0,0,0,0,0,0,0,0,0,0,0,0,0,0,0
8,13,0,0,0,0,0,0,299.9,198,0,0.00396729,0.00457764,0.00427246,0.00335693,0.00335693,0.00549316,0,0,0,0,0,0,299.9,1012,0,0,0,0,0,0,0,0,0,-1.27E-05,-1.10E-05,-1.33E-05,-4.97E-06,0,0,0,0,0,0,0,0,0,0,0,0,0,0,0,0,0,0,0,0,0,0,0,0,0,754.454,-10868,-3349.75,0,0,0,0,0,0,0,0,0,0,0,0,0,0,0,0,0,0,0,0,0,0,0,0
8,14,0,0,0,0,0,0,299.9,198,0,0.00396729,0.00457764,0.00427246,0.00335693,0.00335693,0.00549316,0,0,0,0,0,0,299.9,1012,0,0,0,0,0,0,0,0,0,-1.30E-05,-1.09E-05,-9.98E-06,-4.85E-06,0,0,0,0,0,0,0,0,0,0,0,0,0,0,0,0,0,0,0,0,0,0,0,0,0,726.92,-10927.4,-3277.24,0,0,0,0,0,0,0,0,0,0,0,0,0,0,0,0,0,0,0,0,0,0,0,0
8,15,0,0,0,0,0,0,299.9,198,0,0.00488281,0.00488281,0.00427246,0.00244141,0.00366211,0.00488281,0,0,0,0,0,0,299.9,1012,0,0,0,0,0,0,0,0,0,-1.29E-05,-1.04E-05,-8.00E-06,-5.70E-06,0,0,0,0,0,0,0,0,0,0,0,0,0,0,0,0,0,0,0,0,0,0,0,0,0,699.386,-10986.7,-3204.73,0,0,0,0,0,0,0,0,0,0,0,0,0,0,0,0,0,0,0,0,0,0,0,0
8,16,0,0,0,0,0,0,299.9,198,0,0.00488281,0.00488281,0.00427246,0.00244141,0.00366211,0.00488281,0,0,0,0,0,0,299.9,1012,0,0,0,0,0,0,0,0,0,-1.26E-05,-9.69E-06,-8.06E-06,-7.17E-06,0,0,0,0,0,0,0,0,0,0,0,0,0,0,0,0,0,0,0,0,0,0,0,0,0,671.853,-11046.1,-3132.21,0,0,0,0,0,0,0,0,0,0,0,0,0,0,0,0,0,0,0,0,0,0,0,0
8,17,0,0,0,0,0,0,299.9,198,0,0.00396729,0.00457764,0.00427246,0.00366211,0.00396729,0.00610352,0,0,0,0,0,0,299.9,1012,0,0,0,0,0,0,0,0,0,-1.24E-05,-9.43E-06,-7.75E-06,-6.80E-06,0,0,0,0,0,0,0,0,0,0,0,0,0,0,0,0,0,0,0,0,0,0,0,0,0,644.319,-11105.4,-3059.7,0,0,0,0,0,0,0,0,0,0,0,0,0,0,0,0,0,0,0,0,0,0,0,0
8,18,0,0,0,0,0,0,299.9,198,0,0.00396729,0.00457764,0.00427246,0.00366211,0.00396729,0.00610352,0,0,0,0,0,0,299.9,1012,0,0,0,0,0,0,0,0,0,-1.27E-05,-9.61E-06,-5.99E-06,-4.49E-06,0,0,0,0,0,0,0,0,0,0,0,0,0,0,0,0,0,0,0,0,0,0,0,0,0,616.785,-11164.7,-2987.19,0,0,0,0,0,0,0,0,0,0,0,0,0,0,0,0,0,0,0,0,0,0,0,0
8,19,0,0,0,0,0,0,299.9,198,0,0.00488281,0.00152588,0.00549316,0.00579834,0.00610352,0.00518799,0,0,0,0,0,0,299.9,1012,0,0,0,0,0,0,0,0,0,-1.36E-05,-9.81E-06,-4.50E-06,-3.12E-06,0,0,0,0,0,0,0,0,0,0,0,0,0,0,0,0,0,0,0,0,0,0,0,0,0,589.225,-11225,-2915.05,0,0,0,0,0,0,0,0,0,0,0,0,0,0,0,0,0,0,0,0,0,0,0,0
9,0,0,0,0,0,0,0,299.9,198,0,0.00488281,0.00152588,0.00549316,0.00579834,0.00610352,0.00518799,0,0,0,0,0,0,299.9,1012,0,0,0,0,0,0,0,0,0,-1.44E-05,-9.72E-06,-4.00E-06,-3.57E-06,0,0,0,0,0,0,0,0,0,0,0,0,0,0,0,0,0,0,0,0,0,0,0,0,0,561.64,-11286.3,-2843.29,0,0,0,0,0,0,0,0,0,0,0,0,0,0,0,0,0,0,0,0,0,0,0,0
9,1,0,0,0,0,0,0,299.9,198,0,0.00488281,0.00854492,0.00671387,0.000610352,0.00305176,0.00610352,0,0,0,0,0,0,299.9,1012,0,0,0,0,0,0,0,0,0,-1.45E-05,-9.42E-06,-3.73E-06,-4.16E-06,0,0,0,0,0,0,0,0,0,0,0,0,0,0,0,0,0,0,0,0,0,0,0,0,0,534.054,-11347.5,-2771.54,0,0,0,0,0,0,0,0,0,0,0,0,0,0,0,0,0,0,0,0,0,0,0,0
9,2,0,0,0,0,0,0,299.9,198,0,0.00488281,0.00854492,0.00671387,0.000610352,0.00305176,0.00610352,0,0,0,0,0,0,299.9,1012,0,0,0,0,0,0,0,0,0,-1.38E-05,-8.87E-06,-3.61E-06,-4.30E-06,0,0,0,0,0,0,0,0,0,0,0,0,0,0,0,0,0,0,0,0,0,0,0,0,0,506.469,-11408.8,-2699.78,0,0,0,0,0,0,0,0,0,0,0,0,0,0,0,0,0,0,0,0,0,0,0,0
9,3,0,0,0,0,0,0,299.9,198,0,0.00610352,0.00640869,0.0088501,0.00244141,0.00549316,0.00488281,0,0,0,0,0,0,299.9,1012,0,0,0,0,0,0,0,0,0,-1.20E-05,-7.72E-06,-3.95E-06,-4.60E-06,0,0,0,0,0,0,0,0,0,0,0,0,0,0,0,0,0,0,0,0,0,0,0,0,0,478.883,-11470,-2628.02,0,0,0,0,0,0,0,0,0,0,0,0,0,0,0,0,0,0,0,0,0,0,0,0
9,4,0,0,0,0,0,0,299.9,198,0,0.00610352,0.00640869,0.0088501,0.00244141,0.00549316,0.00488281,0,0,0,0,0,0,299.9,1012,0,0,0,0,0,0,0,0,0,-9.97E-06,-6.45E-06,-4.06E-06,-5.05E-06,0,0,0,0,0,0,0,0,0,0,0,0,0,0,0,0,0,0,0,0,0,0,0,0,0,451.298,-11531.3,-2556.27,0,0,0,0,0,0,0,0,0,0,0,0,0,0,0,0,0,0,0,0,0,0,0,0
9,5,0,0,0,0,0,0,299.9,198,0,0.00518799,0.00488281,0.00335693,0.00488281,0.00274658,0.00549316,0,0,0,0,0,0,299.9,1012,0,0,0,0,0,0,0,0,0,-9.46E-06,-6.55E-06,-3.62E-06,-4.98E-06,0,0,0,0,0,0,0,0,0,0,0,0,0,0,0,0,0,0,0,0,0,0,0,0,0,423.712,-11592.5,-2484.51,0,0,0,0,0,0,0,0,0,0,0,0,0,0,0,0,0,0,0,0,0,0,0,0
9,6,0,0,0,0,0,0,299.9,198,0,0.00518799,0.00488281,0.00335693,0.00488281,0.00274658,0.00549316,0,0,0,0,0,0,299.9,1012,0,0,0,0,0,0,0,0,0,-1.10E-05,-8.30E-06,-4.05E-06,-4.31E-06,0,0,0,0,0,0,0,0,0,0,0,0,0,0,0,0,0,0,0,0,0,0,0,0,0,396.127,-11653.8,-2412.75,0,0,0,0,0,0,0,0,0,0,0,0,0,0,0,0,0,0,0,0,0,0,0,0
9,7,0,0,0,0,0,0,299.9,198,0,0.00335693,0.00488281,0.00396729,0.00457764,0.00427246,0.00518799,0,0,0,0,0,0,299.9,1012,0,0,0,0,0,0,0,0,0,-1.33E-05,-1.01E-05,-5.83E-06,-4.15E-06,0,0,0,0,0,0,0,0,0,0,0,0,0,0,0,0,0,0,0,0,0,0,0,0,0,368.541,-11715,-2341,0,0,0,0,0,0,0,0,0,0,0,0,0,0,0,0,0,0,0,0,0,0,0,0
9,8,0,0,0,0,0,0,299.9,198,0,0.00335693,0.00488281,0.00396729,0.00457764,0.00427246,0.00518799,0,0,0,0,0,0,299.9,1012,0,0,0,0,0,0,0,0,0,-1.50E-05,-1.06E-05,-7.24E-06,-5.29E-06,0,0,0,0,0,0,0,0,0,0,0,0,0,0,0,0,0,0,0,0,0,0,0,0,0,340.956,-11776.3,-2269.24,0,0,0,0,0,0,0,0,0,0,0,0,0,0,0,0,0,0,0,0,0,0,0,0
9,9,0,0,0,0,0,0,299.9,198,0,0.00427246,0.00549316,0.00427246,0.00152588,0.00335693,0.00518799,0,0,0,0,0,0,299.9,1012,0,0,0,0,0,0,0,0,0,-1.53E-05,-9.70E-06,-7.31E-06,-5.87E-06,0,0,0,0,0,0,0,0,0,0,0,0,0,0,0,0,0,0,0,0,0,0,0,0,0,313.37,-11837.5,-2197.48,0,0,0,0,0,0,0,0,0,0,0,0,0,0,0,0,0,0,0,0,0,0,0,0
9,10,0,0,0,0,0,0,299.9,198,0,0.00427246,0.00549316,0.00427246,0.00152588,0.00335693,0.00518799,0,0,0,0,0,0,299.9,1012,0,0,0,0,0,0,0,0,0,-1.39E-05,-8.44E-06,-6.92E-06,-4.08E-06,0,0,0,0,0,0,0,0,0,0,0,0,0,0,0,0,0,0,0,0,0,0,0,0,0,285.785,-11898.8,-2125.73,0,0,0,0,0,0,0,0,0,0,0,0,0,0,0,0,0,0,0,0,0,0,0,0
9,11,0,0,0,0,0,0,299.9,198,0,0.00274658,0.00396729,0.00579834,0.00183105,0.00366211,0.00518799,0,0,0,0,0,0,299.9,1012,0,0,0,0,0,0,0,0,0,-1.20E-05,-7.65E-06,-7.18E-06,-2.68E-06,0,0,0,0,0,0,0,0,0,0,0,0,0,0,0,0,0,0,0,0,0,0,0,0,0,258.199,-11960,-2053.97,0,0,0,0,0,0,0,0,0,0,0,0,0,0,0,0,0,0,0,0,0,0,0,0
9,12,0,0,0,0,0,0,299.9,198,0,0.00274658,0.00396729,0.00579834,0.00183105,0.00366211,0.00518799,0,0,0,0,0,0,299.9,1012,0,0,0,0,0,0,0,0,0,-1.08E-05,-7.33E-06,-8.37E-06,-4.24E-06,0,0,0,0,0,0,0,0,0,0,0,0,0,0,0,0,0,0,0,0,0,0,0,0,0,230.614,-12021.3,-1982.21,0,0,0,0,0,0,0,0,0,0,0,0,0,0,0,0,0,0,0,0,0,0,0,0
9,13,0,0,0,0,0,0,299.9,198,0,0.00457764,0.00457764,0.00518799,0.00457764,0.00183105,0.00549316,0,0,0,0,0,0,299.9,1012,0,0,0,0,0,0,0,0,0,-1.03E-05,-6.73E-06,-9.91E-06,-5.71E-06,0,0,0,0,0,0,0,0,0,0,0,0,0,0,0,0,0,0,0,0,0,0,0,0,0,202.196,-12080.9,-1903.6,0,0,0,0,0,0,0,0,0,0,0,0,0,0,0,0,0,0,0,0,0,0,0,0
9,14,0,0,0,0,0,0,299.9,198,0,0.00457764,0.00457764,0.00518799,0.00457764,0.00183105,0.00549316,0,0,0,0,0,0,299.9,1012,0,0,0,0,0,0,0,0,0,-9.58E-06,-5.34E-06,-1.11E-05,-4.43E-06,0,0,0,0,0,0,0,0,0,0,0,0,0,0,0,0,0,0,0,0,0,0,0,0,0,173.778,-12140.5,-1824.98,0,0,0,0,0,0,0,0,0,0,0,0,0,0,0,0,0,0,0,0,0,0,0,0
9,15,0,0,0,0,0,0,299.9,198,0,0.00396729,0.00518799,0.00305176,0.00183105,0.00305176,0.00488281,0,0,0,0,0,0,299.9,1012,0,0,0,0,0,0,0,0,0,-8.91E-06,-3.60E-06,-1.16E-05,-2.63E-06,0,0,0,0,0,0,0,0,0,0,0,0,0,0,0,0,0,0,0,0,0,0,0,0,0,145.36,-12200.1,-1746.37,0,0,0,0,0,0,0,0,0,0,0,0,0,0,0,0,0,0,0,0,0,0,0,0
9,16,0,0,0,0,0,0,299.9,198,0,0.00396729,0.00518799,0.00305176,0.00183105,0.00305176,0.00488281,0,0,0,0,0,0,299.9,1012,0,0,0,0,0,0,0,0,0,-8.51E-06,-2.08E-06,-1.18E-05,-2.22E-06,0,0,0,0,0,0,0,0,0,0,0,0,0,0,0,0,0,0,0,0,0,0,0,0,0,116.942,-12259.7,-1667.75,0,0,0,0,0,0,0,0,0,0,0,0,0,0,0,0,0,0,0,0,0,0,0,0
9,17,0,0,0,0,0,0,299.9,198,0,0.00274658,0.00244141,0.00457764,0.00366211,0.00366211,0.00518799,0,0,0,0,0,0,299.9,1012,0,0,0,0,0,0,0,0,0,-8.31E-06,-9.46E-07,-1.19E-05,-2.42E-06,0,0,0,0,0,0,0,0,0,0,0,0,0,0,0,0,0,0,0,0,0,0,0,0,0,88.5235,-12319.3,-1589.14,0,0,0,0,0,0,0,0,0,0,0,0,0,0,0,0,0,0,0,0,0,0,0,0
9,18,0,0,0,0,0,0,299.9,198,0,0.00274658,0.00244141,0.00457764,0.00366211,0.00366211,0.00518799,0,0,0,0,0,0,299.9,1012,0,0,0,0,0,0,0,0,0,-8.23E-06,-1.53E-07,-1.22E-05,-2.84E-06,0,0,0,0,0,0,0,0,0,0,0,0,0,0,0,0,0,0,0,0,0,0,0,0,0,60.1054,-12378.9,-1510.52,0,0,0,0,0,0,0,0,0,0,0,0,0,0,0,0,0,0,0,0,0,0,0,0
9,19,0,0,0,0,0,0,299.9,198,0,0.00549316,0.00427246,0.00488281,0.00305176,0.00305176,0.00579834,0,0,0,0,0,0,299.9,1012,0,0,0,0,0,0,0,0,0,-8.72E-06,3.55E-07,-1.20E-05,-3.76E-06,0,0,0,0,0,0,0,0,0,0,0,0,0,0,0,0,0,0,0,0,0,0,0,0,0,31.6873,-12438.5,-1431.91,0,0,0,0,0,0,0,0,0,0,0,0,0,0,0,0,0,0,0,0,0,0,0,0
10,0,0,0,0,0,0,0,299.9,198,0,0.00549316,0.00427246,0.00488281,0.00305176,0.00305176,0.00579834,0,0,0,0,0,0,299.9,1012,0,0,0,0,0,0,0,0,0,-1.11E-05,3.80E-07,-1.11E-05,-4.85E-06,0,0,0,0,0,0,0,0,0,0,0,0,0,0,0,0,0,0,0,0,0,0,0,0,0,3.26924,-12498.1,-1353.29,0,0,0,0,0,0,0,0,0,0,0,0,0,0,0,0,0,0,0,0,0,0,0,0
10,1,0,0,0,0,0,0,299.9,198,0,0.00366211,0.00427246,0.00274658,0.00152588,0.00366211,0.00640869,0,0,0,0,0,0,299.9,1012,0,0,0,0,0,0,0,0,0,-1.49E-05,-1.18E-07,-1.01E-05,-5.72E-06,0,0,0,0,0,0,0,0,0,0,0,0,0,0,0,0,0,0,0,0,0,0,0,0,0,-25.1488,-12557.7,-1274.68,0,0,0,0,0,0,0,0,0,0,0,0,0,0,0,0,0,0,0,0,0,0,0,0
10,2,0,0,0,0,0,0,299.9,198,0,0.00366211,0.00427246,0.00274658,0.00152588,0.00366211,0.00640869,0,0,0,0,0,0,299.9,1012,0,0,0,0,0,0,0,0,0,-1.67E-05,-6.33E-07,-1.04E-05,-6.59E-06,0,0,0,0,0,0,0,0,0,0,0,0,0,0,0,0,0,0,0,0,0,0,0,0,0,-53.5669,-12617.3,-1196.06,0,0,0,0,0,0,0,0,0,0,0,0,0,0,0,0,0,0,0,0,0,0,0,0
10,3,0,0,0,0,0,0,299.9,198,0,0.00518799,0.00366211,0.00732422,0.00213623,0.00244141,0.00518799,0,0,0,0,0,0,299.9,1012,0,0,0,0,0,0,0,0,0,-1.50E-05,-1.23E-06,-1.20E-05,-7.76E-06,0,0,0,0,0,0,0,0,0,0,0,0,0,0,0,0,0,0,0,0,0,0,0,0,0,-81.985,-12676.9,-1117.45,0,0,0,0,0,0,0,0,0,0,0,0,0,0,0,0,0,0,0,0,0,0,0,0
10,4,0,0,0,0,0,0,299.9,198,0,0.00518799,0.00366211,0.00732422,0.00213623,0.00244141,0.00518799,0,0,0,0,0,0,299.9,1012,0,0,0,0,0,0,0,0,0,-1.30E-05,-2.87E-06,-1.33E-05,-9.09E-06,0,0,0,0,0,0,0,0,0,0,0,0,0,0,0,0,0,0,0,0,0,0,0,0,0,-110.403,-12736.5,-1038.83,0,0,0,0,0,0,0,0,0,0,0,0,0,0,0,0,0,0,0,0,0,0,0,0
10,5,0,0,0,0,0,0,299.9,198,0,0.00366211,0.00152588,0.00335693,0.0100708,0.00457764,0.00518799,0,0,0,0,0,0,299.9,1012,0,0,0,0,0,0,0,0,0,-1.25E-05,-5.28E-06,-1.36E-05,-1.01E-05,0,0,0,0,0,0,0,0,0,0,0,0,0,0,0,0,0,0,0,0,0,0,0,0,0,-138.821,-12796.1,-960.219,0,0,0,0,0,0,0,0,0,0,0,0,0,0,0,0,0,0,0,0,0,0,0,0
10,6,0,0,0,0,0,0,299.9,198,0,0.00366211,0.00152588,0.00335693,0.0100708,0.00457764,0.00518799,0,0,0,0,0,0,299.9,1012,0,0,0,0,0,0,0,0,0,-1.17E-05,-6.83E-06,-1.39E-05,-1.03E-05,0,0,0,0,0,0,0,0,0,0,0,0,0,0,0,0,0,0,0,0,0,0,0,0,0,-160.678,-12851.7,-882.046,0,0,0,0,0,0,0,0,0,0,0,0,0,0,0,0,0,0,0,0,0,0,0,0
10,7,0,0,0,0,0,0,299.9,198,0,0.00518799,0.00518799,0.00457764,0.00244141,0.00305176,0.00427246,0,0,0,0,0,0,299.9,1012,0,0,0,0,0,0,0,0,0,-1.00E-05,-7.28E-06,-1.47E-05,-1.00E-05,0,0,0,0,0,0,0,0,0,0,0,0,0,0,0,0,0,0,0,0,0,0,0,0,0,-175.974,-12903.5,-804.313,0,0,0,0,0,0,0,0,0,0,0,0,0,0,0,0,0,0,0,0,0,0,0,0
10,8,0,0,0,0,0,0,299.9,198,0,0.00518799,0.00518799,0.00457764,0.00244141,0.00305176,0.00427246,0,0,0,0,0,0,299.9,1012,0,0,0,0,0,0,0,0,0,-8.47E-06,-7.77E-06,-1.53E-05,-1.00E-05,0,0,0,0,0,0,0,0,0,0,0,0,0,0,0,0,0,0,0,0,0,0,0,0,0,-191.27,-12955.2,-726.58,0,0,0,0,0,0,0,0,0,0,0,0,0,0,0,0,0,0,0,0,0,0,0,0
10,9,0,0,0,0,0,0,299.9,198,0,0.00396729,0.00518799,0.00488281,0.00274658,0.00335693,0.00579834,0,0,0,0,0,0,299.9,1012,0,0,0,0,0,0,0,0,0,-6.98E-06,-8.42E-06,-1.57E-05,-1.07E-05,0,0,0,0,0,0,0,0,0,0,0,0,0,0,0,0,0,0,0,0,0,0,0,0,0,-206.566,-13006.9,-648.847,0,0,0,0,0,0,0,0,0,0,0,0,0,0,0,0,0,0,0,0,0,0,0,0
10,10,0,0,0,0,0,0,299.9,198,0,0.00396729,0.00518799,0.00488281,0.00274658,0.00335693,0.00579834,0,0,0,0,0,0,299.9,1012,0,0,0,0,0,0,0,0,0,-4.07E-06,-9.28E-06,-1.59E-05,-1.23E-05,0,0,0,0,0,0,0,0,0,0,0,0,0,0,0,0,0,0,0,0,0,0,0,0,0,-221.862,-13058.7,-571.114,0,0,0,0,0,0,0,0,0,0,0,0,0,0,0,0,0,0,0,0,0,0,0,0
10,11,0,0,0,0,0,0,299.9,198,0,0.00427246,0.00488281,0.00488281,0.00335693,0.00274658,0.00549316,0,0,0,0,0,0,299.9,1012,0,0,0,0,0,0,0,0,0,-3.57E-07,-1.16E-05,-1.63E-05,-1.39E-05,0,0,0,0,0,0,0,0,0,0,0,0,0,0,0,0,0,0,0,0,0,0,0,0,0,-237.158,-13110.4,-493.381,0,0,0,0,0,0,0,0,0,0,0,0,0,0,0,0,0,0,0,0,0,0,0,0
10,12,0,0,0,0,0,0,299.9,198,0,0.00427246,0.00488281,0.00488281,0.00335693,0.00274658,0.00549316,0,0,0,0,0,0,299.9,1012,0,0,0,0,0,0,0,0,0,1.03E-06,-1.53E-05,-1.62E-05,-1.41E-05,0,0,0,0,0,0,0,0,0,0,0,0,0,0,0,0,0,0,0,0,0,0,0,0,0,-252.454,-13162.1,-415.648,0,0,0,0,0,0,0,0,0,0,0,0,0,0,0,0,0,0,0,0,0,0,0,0
10,13,0,0,0,0,0,0,299.9,198,0,0.00457764,0.00427246,0.00427246,0.00366211,0.00366211,0.00610352,0,0,0,0,0,0,299.9,1012,0,0,0,0,0,0,0,0,0,-4.75E-07,-1.81E-05,-1.48E-05,-1.35E-05,0,0,0,0,0,0,0,0,0,0,0,0,0,0,0,0,0,0,0,0,0,0,0,0,0,-267.75,-13213.9,-337.915,0,0,0,0,0,0,0,0,0,0,0,0,0,0,0,0,0,0,0,0,0,0,0,0
10,14,0,0,0,0,0,0,299.9,198,0,0.00457764,0.00427246,0.00427246,0.00366211,0.00366211,0.00610352,0,0,0,0,0,0,299.9,1012,0,0,0,0,0,0,0,0,0,-1.73E-06,-1.94E-05,-1.24E-05,-1.31E-05,0,0,0,0,0,0,0,0,0,0,0,0,0,0,0,0,0,0,0,0,0,0,0,0,0,-283.046,-13265.6,-260.182,0,0,0,0,0,0,0,0,0,0,0,0,0,0,0,0,0,0,0,0,0,0,0,0
10,15,0,0,0,0,0,0,299.9,198,0,0.00427246,0.00457764,0.00396729,0.00488281,0.00396729,0.00549316,0,0,0,0,0,0,299.9,1012,0,0,0,0,0,0,0,0,0,-7.64E-07,-2.09E-05,-1.05E-05,-1.19E-05,0,0,0,0,0,0,0,0,0,0,0,0,0,0,0,0,0,0,0,0,0,0,0,0,0,-298.342,-13317.3,-182.449,0,0,0,0,0,0,0,0,0,0,0,0,0,0,0,0,0,0,0,0,0,0,0,0
10,16,0,0,0,0,0,0,299.9,198,0,0.00427246,0.00457764,0.00396729,0.00488281,0.00396729,0.00549316,0,0,0,0,0,0,299.9,1012,0,0,0,0,0,0,0,0,0,4.52E-07,-2.25E-05,-9.65E-06,-8.99E-06,0,0,0,0,0,0,0,0,0,0,0,0,0,0,0,0,0,0,0,0,0,0,0,0,0,-313.638,-13369.1,-104.717,0,0,0,0,0,0,0,0,0,0,0,0,0,0,0,0,0,0,0,0,0,0,0,0
10,17,0,0,0,0,0,0,299.9,198,0,0.00335693,0.00518799,0.00518799,0.00366211,0.00244141,0.00488281,0,0,0,0,0,0,299.9,1012,0,0,0,0,0,0,0,0,0,-4.25E-07,-2.28E-05,-9.03E-06,-5.51E-06,0,0,0,0,0,0,0,0,0,0,0,0,0,0,0,0,0,0,0,0,0,0,0,0,0,-328.934,-13420.8,-26.9837,0,0,0,0,0,0,0,0,0,0,0,0,0,0,0,0,0,0,0,0,0,0,0,0
10,18,0,0,0,0,0,0,299.9,198,0,0.00335693,0.00518799,0.00518799,0.00366211,0.00244141,0.00488281,0,0,0,0,0,0,299.9,1012,0,0,0,0,0,0,0,0,0,-2.03E-06,-2.20E-05,-9.37E-06,-3.58E-06,0,0,0,0,0,0,0,0,0,0,0,0,0,0,0,0,0,0,0,0,0,0,0,0,0,-344.23,-13472.5,50.7492,0,0,0,0,0,0,0,0,0,0,0,0,0,0,0,0,0,0,0,0,0,0,0,0
10,19,0,0,0,0,0,0,299.9,198,0,0.00549316,0.00305176,0.00244141,0.00305176,0.000915527,0.00671387,0,0,0,0,0,0,299.9,1012,0,0,0,0,0,0,0,0,0,-2.11E-06,-2.06E-05,-1.15E-05,-3.99E-06,0,0,0,0,0,0,0,0,0,0,0,0,0,0,0,0,0,0,0,0,0,0,0,0,0,-359.527,-13524.3,128.482,0,0,0,0,0,0,0,0,0,0,0,0,0,0,0,0,0,0,0,0,0,0,0,0
11,0,0,0,0,0,0,0,299.9,198,0,0.00549316,0.00305176,0.00244141,0.00305176,0.000915527,0.00671387,0,0,0,0,0,0,299.9,1012,0,0,0,0,0,0,0,0,0,-1.34E-06,-1.82E-05,-1.45E-05,-5.44E-06,0,0,0,0,0,0,0,0,0,0,0,0,0,0,0,0,0,0,0,0,0,0,0,0,0,-355.551,-13564.2,196.559,0,0,0,0,0,0,0,0,0,0,0,0,0,0,0,0,0,0,0,0,0,0,0,0
11,1,0,0,0,0,0,0,299.9,198,0,0.00305176,0.00488281,0,0.00457764,0.00152588,0.00640869,0,0,0,0,0,0,299.9,1012,0,0,0,0,0,0,0,0,0,-1.43E-06,-1.49E-05,-1.71E-05,-6.11E-06,0,0,0,0,0,0,0,0,0,0,0,0,0,0,0,0,0,0,0,0,0,0,0,0,0,-351.576,-13604.1,264.637,0,0,0,0,0,0,0,0,0,0,0,0,0,0,0,0,0,0,0,0,0,0,0,0
11,2,0,0,0,0,0,0,299.9,198,0,0.00305176,0.00488281,0,0.00457764,0.00152588,0.00640869,0,0,0,0,0,0,299.9,1012,0,0,0,0,0,0,0,0,0,-2.99E-06,-1.30E-05,-1.90E-05,-5.00E-06,0,0,0,0,0,0,0,0,0,0,0,0,0,0,0,0,0,0,0,0,0,0,0,0,0,-347.6,-13643.9,332.714,0,0,0,0,0,0,0,0,0,0,0,0,0,0,0,0,0,0,0,0,0,0,0,0
11,3,0,0,0,0,0,0,299.9,198,0,0.00488281,0.00396729,0.00396729,0.00732422,0.00183105,0.00518799,-1.78101,-1.06522,-10.8276,637.268,-699.829,321.304,235.266,953.144,0,0,0,0,0,0,0,0,0,-5.62E-06,-1.31E-05,-2.02E-05,-2.74E-06,0,0,0,0,0,0,0,0,0,0,0,0,0,0,0,0,0,0,0,0,0,0,0,0,0,-343.625,-13683.8,400.791,0,0,0,0,0,0,0,0,0,0,0,0,0,0,0,0,0,0,0,0,0,0,0,0
11,4,0,0,0,0,0,0,299.9,198,0,0.00488281,0.00396729,0.00396729,0.00732422,0.00183105,0.00518799,-3.56201,-2.13043,-21.6553,1274.54,-1399.66,642.609,235.266,953.144,0,0,0,0,0,0,0,0,0,-8.12E-06,-1.33E-05,-2.04E-05,-1.12E-06,0,0,0,0,0,0,0,0,0,0,0,0,0,0,0,0,0,0,0,0,0,0,0,0,0,-339.649,-13723.7,468.868,0,0,0,0,0,0,0,0,0,0,0,0,0,0,0,0,0,0,0,0,0,0,0,0
11,5,0,0,0,0,0,0,299.9,198,0,0.00549316,0.00427246,0.00274658,0.00549316,0.00579834,0.00732422,-1.78101,-1.06522,-10.8276,637.268,-699.829,321.304,235.266,953.144,0,0,0,0,0,0,0,0,0,-9.24E-06,-1.23E-05,-1.98E-05,-4.59E-07,0,0,0,0,0,0,0,0,0,0,0,0,0,0,0,0,0,0,0,0,0,0,0,0,0,-335.674,-13763.6,536.946,0,0,0,0,0,0,0,0,0,0,0,0,0,0,0,0,0,0,0,0,0,0,0,0
11,6,0,0,0,0,0,0,299.9,198,0,0.00549316,0.00427246,0.00274658,0.00549316,0.00579834,0.00732422,0,0,0,0,0,0,299.9,1012,0,0,0,0,0,0,0,0,0,-8.83E-06,-1.06E-05,-1.87E-05,2.62E-07,0,0,0,0,0,0,0,0,0,0,0,0,0,0,0,0,0,0,0,0,0,0,0,0,0,-331.698,-13803.5,605.023,0,0,0,0,0,0,0,0,0,0,0,0,0,0,0,0,0,0,0,0,0,0,0,0
11,7,0,0,0,0,0,0,299.9,198,0,0.00457764,0.00518799,0.00610352,0.00518799,0.00305176,0.00549316,0,0,0,0,0,0,299.9,1012,0,0,0,0,0,0,0,0,0,-8.10E-06,-8.79E-06,-1.70E-05,9.62E-07,0,0,0,0,0,0,0,0,0,0,0,0,0,0,0,0,0,0,0,0,0,0,0,0,0,-327.723,-13843.4,673.1,0,0,0,0,0,0,0,0,0,0,0,0,0,0,0,0,0,0,0,0,0,0,0,0
11,8,0,0,0,0,0,0,299.9,198,0,0.00457764,0.00518799,0.00610352,0.00518799,0.00305176,0.00549316,0,0,0,0,0,0,299.9,1012,0,0,0,0,0,0,0,0,0,-8.18E-06,-7.10E-06,-1.50E-05,8.42E-07,0,0,0,0,0,0,0,0,0,0,0,0,0,0,0,0,0,0,0,0,0,0,0,0,0,-323.748,-13883.3,741.177,0,0,0,0,0,0,0,0,0,0,0,0,0,0,0,0,0,0,0,0,0,0,0,0
11,9,0,0,0,0,0,0,299.9,198,0,0.00396729,0.00457764,0.00518799,0.0012207,0.00396729,0.00518799,0,0,0,0,0,0,299.9,1012,0,0,0,0,0,0,0,0,0,-9.02E-06,-4.93E-06,-1.41E-05,-9.89E-08,0,0,0,0,0,0,0,0,0,0,0,0,0,0,0,0,0,0,0,0,0,0,0,0,0,-319.772,-13923.2,809.255,0,0,0,0,0,0,0,0,0,0,0,0,0,0,0,0,0,0,0,0,0,0,0,0
11,10,0,0,0,0,0,0,299.9,198,0,0.00396729,0.00457764,0.00518799,0.0012207,0.00396729,0.00518799,0,0,0,0,0,0,299.9,1012,0,0,0,0,0,0,0,0,0,-1.01E-05,-2.16E-06,-1.45E-05,-1.52E-06,0,0,0,0,0,0,0,0,0,0,0,0,0,0,0,0,0,0,0,0,0,0,0,0,0,-315.797,-13963.1,877.332,0,0,0,0,0,0,0,0,0,0,0,0,0,0,0,0,0,0,0,0,0,0,0,0
11,11,0,0,0,0,0,0,299.9,198,0,0.00396729,0.00427246,0.00640869,0.00427246,0.00396729,0.00671387,0,0,0,0,0,0,299.9,1012,0,0,0,0,0,0,0,0,0,-1.13E-05,2.93E-07,-1.50E-05,-3.24E-06,0,0,0,0,0,0,0,0,0,0,0,0,0,0,0,0,0,0,0,0,0,0,0,0,0,-311.821,-14003,945.409,0,0,0,0,0,0,0,0,0,0,0,0,0,0,0,0,0,0,0,0,0,0,0,0
11,12,0,0,0,0,0,0,299.9,198,0,0.00396729,0.00427246,0.00640869,0.00427246,0.00396729,0.00671387,0,0,0,0,0,0,299.9,1012,0,0,0,0,0,0,0,0,0,-1.22E-05,1.92E-06,-1.47E-05,-4.70E-06,0,0,0,0,0,0,0,0,0,0,0,0,0,0,0,0,0,0,0,0,0,0,0,0,0,-307.846,-14042.9,1013.49,0,0,0,0,0,0,0,0,0,0,0,0,0,0,0,0,0,0,0,0,0,0,0,0
11,13,0,0,0,0,0,0,299.9,198,0,0.00549316,0.00305176,0.00579834,0.00396729,0.00274658,0.00579834,0,0,0,0,0,0,299.9,1012,0,0,0,0,0,0,0,0,0,-1.25E-05,3.04E-06,-1.42E-05,-5.13E-06,0,0,0,0,0,0,0,0,0,0,0,0,0,0,0,0,0,0,0,0,0,0,0,0,0,-301.199,-14077.5,1076.16,0,0,0,0,0,0,0,0,0,0,0,0,0,0,0,0,0,0,0,0,0,0,0,0
11,14,0,0,0,0,0,0,299.9,198,0,0.00549316,0.00305176,0.00579834,0.00396729,0.00274658,0.00579834,0,0,0,0,0,0,299.9,1012,0,0,0,0,0,0,0,0,0,-1.29E-05,3.47E-06,-1.37E-05,-4.61E-06,0,0,0,0,0,0,0,0,0,0,0,0,0,0,0,0,0,0,0,0,0,0,0,0,0,-291.88,-14106.8,1133.43,0,0,0,0,0,0,0,0,0,0,0,0,0,0,0,0,0,0,0,0,0,0,0,0
11,15,0,0,0,0,0,0,299.9,198,0,0.00488281,0.00549316,0.00549316,0.00244141,0.00213623,0.00457764,0,0,0,0,0,0,299.9,1012,0,0,0,0,0,0,0,0,0,-1.42E-05,2.92E-06,-1.32E-05,-4.02E-06,0,0,0,0,0,0,0,0,0,0,0,0,0,0,0,0,0,0,0,0,0,0,0,0,0,-282.561,-14136.1,1190.7,0,0,0,0,0,0,0,0,0,0,0,0,0,0,0,0,0,0,0,0,0,0,0,0
11,16,0,0,0,0,0,0,299.9,198,0,0.00488281,0.00549316,0.00549316,0.00244141,0.00213623,0.00457764,0,0,0,0,0,0,299.9,1012,0,0,0,0,0,0,0,0,0,-1.50E-05,1.99E-06,-1.30E-05,-3.86E-06,0,0,0,0,0,0,0,0,0,0,0,0,0,0,0,0,0,0,0,0,0,0,0,0,0,-273.242,-14165.5,1247.96,0,0,0,0,0,0,0,0,0,0,0,0,0,0,0,0,0,0,0,0,0,0,0,0
11,17,0,0,0,0,0,0,299.9,198,0,0.00396729,0.00518799,0.00488281,0.00457764,0.00366211,0.00762939,0,0,0,0,0,0,299.9,1012,0,0,0,0,0,0,0,0,0,-1.35E-05,1.11E-06,-1.34E-05,-4.06E-06,0,0,0,0,0,0,0,0,0,0,0,0,0,0,0,0,0,0,0,0,0,0,0,0,0,-263.923,-14194.8,1305.23,0,0,0,0,0,0,0,0,0,0,0,0,0,0,0,0,0,0,0,0,0,0,0,0
11,18,0,0,0,0,0,0,299.9,198,0,0.00396729,0.00518799,0.00488281,0.00457764,0.00366211,0.00762939,0,0,0,0,0,0,299.9,1012,0,0,0,0,0,0,0,0,0,-1.11E-05,1.89E-07,-1.40E-05,-4.40E-06,0,0,0,0,0,0,0,0,0,0,0,0,0,0,0,0,0,0,0,0,0,0,0,0,0,-254.605,-14224.1,1362.5,0,0,0,0,0,0,0,0,0,0,0,0,0,0,0,0,0,0,0,0,0,0,0,0
11,19,0,0,0,0,0,0,299.9,198,0,0.00396729,0.00366211,0.000305176,0.00549316,0.00701904,0.00457764,0,0,0,0,0,0,299.9,1012,0,0,0,0,0,0,0,0,0,-1.06E-05,-7.18E-07,-1.48E-05,-5.14E-06,0,0,0,0,0,0,0,0,0,0,0,0,0,0,0,0,0,0,0,0,0,0,0,0,0,-245.286,-14253.4,1419.77,0,0,0,0,0,0,0,0,0,0,0,0,0,0,0,0,0,0,0,0,0,0,0,0
12,0,0,0,0,0,0,0,299.9,198,0,0.00396729,0.00366211,0.000305176,0.00549316,0.00701904,0.00457764,0,0,0,0,0,0,299.9,1012,0,0,0,0,0,0,0,0,0,-1.09E-05,-1.94E-06,-1.65E-05,-6.86E-06,0,0,0,0,0,0,0,0,0,0,0,0,0,0,0,0,0,0,0,0,0,0,0,0,0,-235.967,-14282.7,1477.04,0,0,0,0,0,0,0,0,0,0,0,0,0,0,0,0,0,0,0,0,0,0,0,0
12,1,0,0,0,0,0,0,299.9,198,0,0.00366211,0.00854492,0.00549316,0.00518799,0.00274658,0.00457764,0,0,0,0,0,0,299.9,1012,0,0,0,0,0,0,0,0,0,-1.04E-05,-3.90E-06,-1.84E-05,-8.48E-06,0,0,0,0,0,0,0,0,0,0,0,0,0,0,0,0,0,0,0,0,0,0,0,0,0,-226.648,-14312.1,1534.31,0,0,0,0,0,0,0,0,0,0,0,0,0,0,0,0,0,0,0,0,0,0,0,0
12,2,0,0,0,0,0,0,299.9,198,0,0.00366211,0.00854492,0.00549316,0.00518799,0.00274658,0.00457764,0,0,0,0,0,0,299.9,1012,0,0,0,0,0,0,0,0,0,-9.59E-06,-6.07E-06,-1.81E-05,-7.90E-06,0,0,0,0,0,0,0,0,0,0,0,0,0,0,0,0,0,0,0,0,0,0,0,0,0,-217.329,-14341.4,1591.57,0,0,0,0,0,0,0,0,0,0,0,0,0,0,0,0,0,0,0,0,0,0,0,0
12,3,0,0,0,0,0,0,299.9,198,0,0.00701904,0.00549316,0.00244141,0.00396729,0.00457764,0.00671387,0,0,0,0,0,0,299.9,1012,0,0,0,0,0,0,0,0,0,-8.74E-06,-7.81E-06,-1.59E-05,-6.04E-06,0,0,0,0,0,0,0,0,0,0,0,0,0,0,0,0,0,0,0,0,0,0,0,0,0,-208.011,-14370.7,1648.84,0,0,0,0,0,0,0,0,0,0,0,0,0,0,0,0,0,0,0,0,0,0,0,0
12,4,0,0,0,0,0,0,299.9,198,0,0.00701904,0.00549316,0.00244141,0.00396729,0.00457764,0.00671387,0,0,0,0,0,0,299.9,1012,0,0,0,0,0,0,0,0,0,-7.33E-06,-9.35E-06,-1.42E-05,-5.68E-06,0,0,0,0,0,0,0,0,0,0,0,0,0,0,0,0,0,0,0,0,0,0,0,0,0,-198.692,-14400,1706.11,0,0,0,0,0,0,0,0,0,0,0,0,0,0,0,0,0,0,0,0,0,0,0,0
12,5,0,0,0,0,0,0,299.9,198,0,0.00305176,0.00671387,0.00305176,0,0.00366211,0.00518799,0,0,0,0,0,0,299.9,1012,0,0,0,0,0,0,0,0,0,-6.89E-06,-1.14E-05,-1.42E-05,-6.56E-06,0,0,0,0,0,0,0,0,0,0,0,0,0,0,0,0,0,0,0,0,0,0,0,0,0,-189.373,-14429.4,1763.38,0,0,0,0,0,0,0,0,0,0,0,0,0,0,0,0,0,0,0,0,0,0,0,0
12,6,0,0,0,0,0,0,299.9,198,0,0.00305176,0.00671387,0.00305176,0,0.00366211,0.00518799,0,0,0,0,0,0,299.9,1012,0,0,0,0,0,0,0,0,0,-8.88E-06,-1.37E-05,-1.49E-05,-6.53E-06,0,0,0,0,0,0,0,0,0,0,0,0,0,0,0,0,0,0,0,0,0,0,0,0,0,-180.054,-14458.7,1820.65,0,0,0,0,0,0,0,0,0,0,0,0,0,0,0,0,0,0,0,0,0,0,0,0
12,7,0,0,0,0,0,0,299.9,198,0,0.00396729,0.00427246,0.00396729,0.00427246,0.00305176,0.00518799,0,0,0,0,0,0,299.9,1012,0,0,0,0,0,0,0,0,0,-1.16E-05,-1.46E-05,-1.42E-05,-5.22E-06,0,0,0,0,0,0,0,0,0,0,0,0,0,0,0,0,0,0,0,0,0,0,0,0,0,-176.96,-14480.1,1868.44,0,0,0,0,0,0,0,0,0,0,0,0,0,0,0,0,0,0,0,0,0,0,0,0
12,8,0,0,0,0,0,0,299.9,198,0,0.00396729,0.00427246,0.00396729,0.00427246,0.00305176,0.00518799,0,0,0,0,0,0,299.9,1012,0,0,0,0,0,0,0,0,0,-1.29E-05,-1.38E-05,-1.21E-05,-3.91E-06,0,0,0,0,0,0,0,0,0,0,0,0,0,0,0,0,0,0,0,0,0,0,0,0,0,-173.865,-14501.5,1916.23,0,0,0,0,0,0,0,0,0,0,0,0,0,0,0,0,0,0,0,0,0,0,0,0
12,9,0,0,0,0,0,0,299.9,198,0,0.00335693,0.00396729,0.00427246,0.00274658,0.00305176,0.00549316,0,0,0,0,0,0,299.9,1012,0,0,0,0,0,0,0,0,0,-1.28E-05,-1.41E-05,-1.02E-05,-4.06E-06,0,0,0,0,0,0,0,0,0,0,0,0,0,0,0,0,0,0,0,0,0,0,0,0,0,-170.771,-14522.9,1964.03,0,0,0,0,0,0,0,0,0,0,0,0,0,0,0,0,0,0,0,0,0,0,0,0
12,10,0,0,0,0,0,0,299.9,198,0,0.00335693,0.00396729,0.00427246,0.00274658,0.00305176,0.00549316,0,0,0,0,0,0,299.9,1012,0,0,0,0,0,0,0,0,0,-1.24E-05,-1.59E-05,-1.00E-05,-5.77E-06,0,0,0,0,0,0,0,0,0,0,0,0,0,0,0,0,0,0,0,0,0,0,0,0,0,-167.676,-14544.3,2011.82,0,0,0,0,0,0,0,0,0,0,0,0,0,0,0,0,0,0,0,0,0,0,0,0
12,11,0,0,0,0,0,0,299.9,198,0,0.00457764,0.00488281,0.00366211,0.00366211,0.00335693,0.00518799,0,0,0,0,0,0,299.9,1012,0,0,0,0,0,0,0,0,0,-1.22E-05,-1.63E-05,-1.07E-05,-7.56E-06,0,0,0,0,0,0,0,0,0,0,0,0,0,0,0,0,0,0,0,0,0,0,0,0,0,-164.582,-14565.7,2059.62,0,0,0,0,0,0,0,0,0,0,0,0,0,0,0,0,0,0,0,0,0,0,0,0
12,12,0,0,0,0,0,0,299.9,198,0,0.00457764,0.00488281,0.00366211,0.00366211,0.00335693,0.00518799,0,0,0,0,0,0,299.9,1012,0,0,0,0,0,0,0,0,0,-1.19E-05,-1.44E-05,-1.08E-05,-7.86E-06,0,0,0,0,0,0,0,0,0,0,0,0,0,0,0,0,0,0,0,0,0,0,0,0,0,-161.487,-14587.1,2107.41,0,0,0,0,0,0,0,0,0,0,0,0,0,0,0,0,0,0,0,0,0,0,0,0
12,13,0,0,0,0,0,0,299.9,198,0,0.00457764,0.00488281,0.00457764,0.00396729,0.00305176,0.00488281,0,0,0,0,0,0,299.9,1012,0,0,0,0,0,0,0,0,0,-1.11E-05,-1.21E-05,-9.78E-06,-6.48E-06,0,0,0,0,0,0,0,0,0,0,0,0,0,0,0,0,0,0,0,0,0,0,0,0,0,-158.393,-14608.5,2155.2,0,0,0,0,0,0,0,0,0,0,0,0,0,0,0,0,0,0,0,0,0,0,0,0
12,14,0,0,0,0,0,0,299.9,198,0,0.00457764,0.00488281,0.00457764,0.00396729,0.00305176,0.00488281,0,0,0,0,0,0,299.9,1012,0,0,0,0,0,0,0,0,0,-1.08E-05,-1.09E-05,-8.48E-06,-4.67E-06,0,0,0,0,0,0,0,0,0,0,0,0,0,0,0,0,0,0,0,0,0,0,0,0,0,-155.299,-14629.9,2203,0,0,0,0,0,0,0,0,0,0,0,0,0,0,0,0,0,0,0,0,0,0,0,0
12,15,0,0,0,0,0,0,299.9,198,0,0.00335693,0.00549316,0.00366211,0.000610352,0.00335693,0.00640869,0,0,0,0,0,0,299.9,1012,0,0,0,0,0,0,0,0,0,-1.20E-05,-1.08E-05,-8.06E-06,-3.59E-06,0,0,0,0,0,0,0,0,0,0,0,0,0,0,0,0,0,0,0,0,0,0,0,0,0,-152.204,-14651.3,2250.79,0,0,0,0,0,0,0,0,0,0,0,0,0,0,0,0,0,0,0,0,0,0,0,0
12,16,0,0,0,0,0,0,299.9,198,0,0.00335693,0.00549316,0.00366211,0.000610352,0.00335693,0.00640869,0,0,0,0,0,0,299.9,1012,0,0,0,0,0,0,0,0,0,-1.42E-05,-1.11E-05,-8.16E-06,-2.92E-06,0,0,0,0,0,0,0,0,0,0,0,0,0,0,0,0,0,0,0,0,0,0,0,0,0,-149.11,-14672.8,2298.58,0,0,0,0,0,0,0,0,0,0,0,0,0,0,0,0,0,0,0,0,0,0,0,0
12,17,0,0,0,0,0,0,299.9,198,0,0.00427246,0.00488281,0.00396729,0.00396729,0.00305176,0.00579834,0,0,0,0,0,0,299.9,1012,0,0,0,0,0,0,0,0,0,-1.57E-05,-1.11E-05,-8.27E-06,-2.45E-06,0,0,0,0,0,0,0,0,0,0,0,0,0,0,0,0,0,0,0,0,0,0,0,0,0,-146.015,-14694.2,2346.38,0,0,0,0,0,0,0,0,0,0,0,0,0,0,0,0,0,0,0,0,0,0,0,0
12,18,0,0,0,0,0,0,299.9,198,0,0.00427246,0.00488281,0.00396729,0.00396729,0.00305176,0.00579834,0,0,0,0,0,0,299.9,1012,0,0,0,0,0,0,0,0,0,-1.55E-05,-1.08E-05,-8.80E-06,-3.04E-06,0,0,0,0,0,0,0,0,0,0,0,0,0,0,0,0,0,0,0,0,0,0,0,0,0,-142.921,-14715.6,2394.17,0,0,0,0,0,0,0,0,0,0,0,0,0,0,0,0,0,0,0,0,0,0,0,0
12,19,0,0,0,0,0,0,299.9,198,0,0.00183105,0.00579834,0.00640869,0.00366211,0.00488281,0.00579834,0,0,0,0,0,0,299.9,1012,0,0,0,0,0,0,0,0,0,-1.36E-05,-1.09E-05,-9.62E-06,-4.68E-06,0,0,0,0,0,0,0,0,0,0,0,0,0,0,0,0,0,0,0,0,0,0,0,0,0,-139.826,-14737,2441.96,0,0,0,0,0,0,0,0,0,0,0,0,0,0,0,0,0,0,0,0,0,0,0,0
13,0,0,0,0,0,0,0,299.9,198,0,0.00183105,0.00579834,0.00640869,0.00366211,0.00488281,0.00579834,0,0,0,0,0,0,299.9,1012,0,0,0,0,0,0,0,0,0,-1.11E-05,-1.19E-05,-9.64E-06,-5.79E-06,0,0,0,0,0,0,0,0,0,0,0,0,0,0,0,0,0,0,0,0,0,0,0,0,0,-138.49,-14755.3,2484.95,0,0,0,0,0,0,0,0,0,0,0,0,0,0,0,0,0,0,0,0,0,0,0,0
13,1,0,0,0,0,0,0,299.9,198,0,0.00518799,0.00213623,0.00396729,0.00488281,0.00366211,0.00488281,0,0,0,0,0,0,299.9,1012,0,0,0,0,0,0,0,0,0,-9.28E-06,-1.35E-05,-8.59E-06,-5.30E-06,0,0,0,0,0,0,0,0,0,0,0,0,0,0,0,0,0,0,0,0,0,0,0,0,0,-138.912,-14770.5,2523.14,0,0,0,0,0,0,0,0,0,0,0,0,0,0,0,0,0,0,0,0,0,0,0,0
13,2,0,0,0,0,0,0,299.9,198,0,0.00518799,0.00213623,0.00396729,0.00488281,0.00366211,0.00488281,0,0,0,0,0,0,299.9,1012,0,0,0,0,0,0,0,0,0,-8.38E-06,-1.47E-05,-7.37E-06,-3.77E-06,0,0,0,0,0,0,0,0,0,0,0,0,0,0,0,0,0,0,0,0,0,0,0,0,0,-139.334,-14785.7,2561.33,0,0,0,0,0,0,0,0,0,0,0,0,0,0,0,0,0,0,0,0,0,0,0,0
13,3,0,0,0,0,0,0,299.9,198,0,0.00549316,0.00427246,0.00427246,0.0134277,0.00305176,0.00579834,0,0,0,0,0,0,299.9,1012,0,0,0,0,0,0,0,0,0,-7.90E-06,-1.52E-05,-6.47E-06,-2.28E-06,0,0,0,0,0,0,0,0,0,0,0,0,0,0,0,0,0,0,0,0,0,0,0,0,0,-139.755,-14800.9,2599.52,0,0,0,0,0,0,0,0,0,0,0,0,0,0,0,0,0,0,0,0,0,0,0,0
13,4,0,0,0,0,0,0,299.9,198,0,0.00549316,0.00427246,0.00427246,0.0134277,0.00305176,0.00579834,0,0,0,0,0,0,299.9,1012,0,0,0,0,0,0,0,0,0,-7.24E-06,-1.56E-05,-5.64E-06,-1.35E-06,0,0,0,0,0,0,0,0,0,0,0,0,0,0,0,0,0,0,0,0,0,0,0,0,0,-140.177,-14816.1,2637.71,0,0,0,0,0,0,0,0,0,0,0,0,0,0,0,0,0,0,0,0,0,0,0,0
13,5,0,0,0,0,0,0,299.9,198,0,0.00457764,0.00274658,0.00579834,0.00183105,0.00305176,0.00762939,0,0,0,0,0,0,299.9,1012,0,0,0,0,0,0,0,0,0,-7.21E-06,-1.52E-05,-5.37E-06,-1.77E-06,0,0,0,0,0,0,0,0,0,0,0,0,0,0,0,0,0,0,0,0,0,0,0,0,0,-140.599,-14831.3,2675.9,0,0,0,0,0,0,0,0,0,0,0,0,0,0,0,0,0,0,0,0,0,0,0,0
13,6,0,0,0,0,0,0,299.9,198,0,0.00457764,0.00274658,0.00579834,0.00183105,0.00305176,0.00762939,0,0,0,0,0,0,299.9,1012,0,0,0,0,0,0,0,0,0,-8.69E-06,-1.34E-05,-6.20E-06,-4.12E-06,0,0,0,0,0,0,0,0,0,0,0,0,0,0,0,0,0,0,0,0,0,0,0,0,0,-141.021,-14846.5,2714.09,0,0,0,0,0,0,0,0,0,0,0,0,0,0,0,0,0,0,0,0,0,0,0,0
13,7,0,0,0,0,0,0,299.9,198,0,0.00457764,0.00549316,0.00396729,0.00396729,0.00457764,0.00518799,0,0,0,0,0,0,299.9,1012,0,0,0,0,0,0,0,0,0,-9.95E-06,-1.20E-05,-6.66E-06,-6.64E-06,0,0,0,0,0,0,0,0,0,0,0,0,0,0,0,0,0,0,0,0,0,0,0,0,0,-141.443,-14861.8,2752.28,0,0,0,0,0,0,0,0,0,0,0,0,0,0,0,0,0,0,0,0,0,0,0,0
13,8,0,0,0,0,0,0,299.9,198,0,0.00457764,0.00549316,0.00396729,0.00396729,0.00457764,0.00518799,0,0,0,0,0,0,299.9,1012,0,0,0,0,0,0,0,0,0,-9.21E-06,-1.20E-05,-5.46E-06,-7.57E-06,0,0,0,0,0,0,0,0,0,0,0,0,0,0,0,0,0,0,0,0,0,0,0,0,0,-141.865,-14877,2790.47,0,0,0,0,0,0,0,0,0,0,0,0,0,0,0,0,0,0,0,0,0,0,0,0
13,9,0,0,0,0,0,0,299.9,198,0,0.00396729,0.00518799,0.00488281,0.00213623,0.00335693,0.00488281,0,0,0,0,0,0,299.9,1012,0,0,0,0,0,0,0,0,0,-7.73E-06,-1.24E-05,-3.58E-06,-7.75E-06,0,0,0,0,0,0,0,0,0,0,0,0,0,0,0,0,0,0,0,0,0,0,0,0,0,-142.286,-14892.2,2828.66,0,0,0,0,0,0,0,0,0,0,0,0,0,0,0,0,0,0,0,0,0,0,0,0
13,10,0,0,0,0,0,0,299.9,198,0,0.00396729,0.00518799,0.00488281,0.00213623,0.00335693,0.00488281,0,0,0,0,0,0,299.9,1012,0,0,0,0,0,0,0,0,0,-8.63E-06,-1.20E-05,-1.97E-06,-8.34E-06,0,0,0,0,0,0,0,0,0,0,0,0,0,0,0,0,0,0,0,0,0,0,0,0,0,-142.708,-14907.4,2866.85,0,0,0,0,0,0,0,0,0,0,0,0,0,0,0,0,0,0,0,0,0,0,0,0
13,11,0,0,0,0,0,0,299.9,198,0,0.00457764,0.00518799,0.00457764,0.00244141,0.00305176,0.00549316,0,0,0,0,0,0,299.9,1012,0,0,0,0,0,0,0,0,0,-1.26E-05,-1.12E-05,-8.77E-07,-9.17E-06,0,0,0,0,0,0,0,0,0,0,0,0,0,0,0,0,0,0,0,0,0,0,0,0,0,-143.13,-14922.6,2905.04,0,0,0,0,0,0,0,0,0,0,0,0,0,0,0,0,0,0,0,0,0,0,0,0
13,12,0,0,0,0,0,0,299.9,198,0,0.00457764,0.00518799,0.00457764,0.00244141,0.00305176,0.00549316,0,0,0,0,0,0,299.9,1012,0,0,0,0,0,0,0,0,0,-1.54E-05,-1.02E-05,-1.47E-06,-9.67E-06,0,0,0,0,0,0,0,0,0,0,0,0,0,0,0,0,0,0,0,0,0,0,0,0,0,-143.552,-14937.8,2943.23,0,0,0,0,0,0,0,0,0,0,0,0,0,0,0,0,0,0,0,0,0,0,0,0
13,13,0,0,0,0,0,0,299.9,198,0,0.00396729,0.00427246,0.00610352,0.00549316,0.00335693,0.00549316,0,0,0,0,0,0,299.9,1012,0,0,0,0,0,0,0,0,0,-1.37E-05,-9.21E-06,-4.68E-06,-9.76E-06,0,0,0,0,0,0,0,0,0,0,0,0,0,0,0,0,0,0,0,0,0,0,0,0,0,-143.974,-14953,2981.42,0,0,0,0,0,0,0,0,0,0,0,0,0,0,0,0,0,0,0,0,0,0,0,0
13,14,0,0,0,0,0,0,299.9,198,0,0.00396729,0.00427246,0.00610352,0.00549316,0.00335693,0.00549316,0,0,0,0,0,0,299.9,1012,0,0,0,0,0,0,0,0,0,-1.09E-05,-7.86E-06,-9.41E-06,-1.01E-05,0,0,0,0,0,0,0,0,0,0,0,0,0,0,0,0,0,0,0,0,0,0,0,0,0,-146.024,-14961.2,3010.58,0,0,0,0,0,0,0,0,0,0,0,0,0,0,0,0,0,0,0,0,0,0,0,0
13,15,0,0,0,0,0,0,299.9,198,0,0.00427246,0.00427246,0.00396729,0.00213623,0.00274658,0.00457764,0,0,0,0,0,0,299.9,1012,0,0,0,0,0,0,0,0,0,-1.06E-05,-6.36E-06,-1.34E-05,-1.09E-05,0,0,0,0,0,0,0,0,0,0,0,0,0,0,0,0,0,0,0,0,0,0,0,0,0,-148.073,-14969.4,3039.73,0,0,0,0,0,0,0,0,0,0,0,0,0,0,0,0,0,0,0,0,0,0,0,0
13,16,0,0,0,0,0,0,299.9,198,0,0.00427246,0.00427246,0.00396729,0.00213623,0.00274658,0.00457764,0,0,0,0,0,0,299.9,1012,0,0,0,0,0,0,0,0,0,-1.17E-05,-5.42E-06,-1.48E-05,-1.18E-05,0,0,0,0,0,0,0,0,0,0,0,0,0,0,0,0,0,0,0,0,0,0,0,0,0,-150.123,-14977.7,3068.88,0,0,0,0,0,0,0,0,0,0,0,0,0,0,0,0,0,0,0,0,0,0,0,0
13,17,0,0,0,0,0,0,299.9,198,0,0.00457764,0.00396729,0.00488281,0.00427246,0.00335693,0.00579834,0,0,0,0,0,0,299.9,1012,0,0,0,0,0,0,0,0,0,-1.26E-05,-5.40E-06,-1.41E-05,-1.26E-05,0,0,0,0,0,0,0,0,0,0,0,0,0,0,0,0,0,0,0,0,0,0,0,0,0,-152.173,-14985.9,3098.03,0,0,0,0,0,0,0,0,0,0,0,0,0,0,0,0,0,0,0,0,0,0,0,0
13,18,0,0,0,0,0,0,299.9,198,0,0.00457764,0.00396729,0.00488281,0.00427246,0.00335693,0.00579834,0,0,0,0,0,0,299.9,1012,0,0,0,0,0,0,0,0,0,-1.37E-05,-5.70E-06,-1.39E-05,-1.34E-05,0,0,0,0,0,0,0,0,0,0,0,0,0,0,0,0,0,0,0,0,0,0,0,0,0,-154.223,-14994.1,3127.18,0,0,0,0,0,0,0,0,0,0,0,0,0,0,0,0,0,0,0,0,0,0,0,0
13,19,0,0,0,0,0,0,299.9,198,0,0.00396729,0.00457764,0.00366211,0.00396729,0.00305176,0.00488281,0,0,0,0,0,0,299.9,1012,0,0,0,0,0,0,0,0,0,-1.52E-05,-5.33E-06,-1.43E-05,-1.44E-05,0,0,0,0,0,0,0,0,0,0,0,0,0,0,0,0,0,0,0,0,0,0,0,0,0,-156.273,-15002.3,3156.33,0,0,0,0,0,0,0,0,0,0,0,0,0,0,0,0,0,0,0,0,0,0,0,0
14,0,0,0,0,0,0,0,299.9,198,0,0.00396729,0.00457764,0.00366211,0.00396729,0.00305176,0.00488281,0,0,0,0,0,0,299.9,1012,0,0,0,0,0,0,0,0,0,-1.66E-05,-3.95E-06,-1.33E-05,-1.50E-05,0,0,0,0,0,0,0,0,0,0,0,0,0,0,0,0,0,0,0,0,0,0,0,0,0,-158.322,-15010.5,3185.49,0,0,0,0,0,0,0,0,0,0,0,0,0,0,0,0,0,0,0,0,0,0,0,0
14,1,0,0,0,0,0,0,299.9,198,0,0.00457764,0.00549316,0.00579834,-0.0012207,0.00701904,0.00396729,0,0,0,0,0,0,299.9,1012,0,0,0,0,0,0,0,0,0,-1.63E-05,-2.58E-06,-1.09E-05,-1.41E-05,0,0,0,0,0,0,0,0,0,0,0,0,0,0,0,0,0,0,0,0,0,0,0,0,0,-160.372,-15018.7,3214.64,0,0,0,0,0,0,0,0,0,0,0,0,0,0,0,0,0,0,0,0,0,0,0,0
14,2,0,0,0,0,0,0,299.9,198,0,0.00457764,0.00549316,0.00579834,-0.0012207,0.00701904,0.00396729,0,0,0,0,0,0,299.9,1012,0,0,0,0,0,0,0,0,0,-1.41E-05,-2.18E-06,-8.30E-06,-1.16E-05,0,0,0,0,0,0,0,0,0,0,0,0,0,0,0,0,0,0,0,0,0,0,0,0,0,-162.422,-15026.9,3243.79,0,0,0,0,0,0,0,0,0,0,0,0,0,0,0,0,0,0,0,0,0,0,0,0
14,3,0,0,0,0,0,0,299.9,198,0,0.0012207,0.00244141,0.00335693,-0.00518799,0.00183105,0.00366211,0,0,0,0,0,0,299.9,1012,0,0,0,0,0,0,0,0,0,-1.22E-05,-2.18E-06,-5.86E-06,-9.48E-06,0,0,0,0,0,0,0,0,0,0,0,0,0,0,0,0,0,0,0,0,0,0,0,0,0,-164.472,-15035.1,3272.94,0,0,0,0,0,0,0,0,0,0,0,0,0,0,0,0,0,0,0,0,0,0,0,0
14,4,0,0,0,0,0,0,299.9,198,0,0.0012207,0.00244141,0.00335693,-0.00518799,0.00183105,0.00366211,0,0,0,0,0,0,299.9,1012,0,0,0,0,0,0,0,0,0,-1.20E-05,-1.78E-06,-3.84E-06,-8.78E-06,0,0,0,0,0,0,0,0,0,0,0,0,0,0,0,0,0,0,0,0,0,0,0,0,0,-166.522,-15043.4,3302.09,0,0,0,0,0,0,0,0,0,0,0,0,0,0,0,0,0,0,0,0,0,0,0,0
14,5,0,0,0,0,0,0,299.9,198,0,0.00274658,0.00518799,0.00335693,-0.00396729,0.00244141,0.00457764,0,0,0,0,0,0,299.9,1012,0,0,0,0,0,0,0,0,0,-1.20E-05,-1.14E-06,-3.45E-06,-8.61E-06,0,0,0,0,0,0,0,0,0,0,0,0,0,0,0,0,0,0,0,0,0,0,0,0,0,-168.571,-15051.6,3331.24,0,0,0,0,0,0,0,0,0,0,0,0,0,0,0,0,0,0,0,0,0,0,0,0
14,6,0,0,0,0,0,0,299.9,198,0,0.00274658,0.00518799,0.00335693,-0.00396729,0.00244141,0.00457764,0,0,0,0,0,0,299.9,1012,0,0,0,0,0,0,0,0,0,-1.13E-05,-6.08E-07,-4.70E-06,-8.33E-06,0,0,0,0,0,0,0,0,0,0,0,0,0,0,0,0,0,0,0,0,0,0,0,0,0,-170.621,-15059.8,3360.4,0,0,0,0,0,0,0,0,0,0,0,0,0,0,0,0,0,0,0,0,0,0,0,0
14,7,0,0,0,0,0,0,299.9,198,0,0.00427246,0.00518799,0.00427246,0.00305176,0.00274658,0.00793457,0,0,0,0,0,0,299.9,1012,0,0,0,0,0,0,0,0,0,-1.04E-05,-3.32E-07,-5.89E-06,-8.06E-06,0,0,0,0,0,0,0,0,0,0,0,0,0,0,0,0,0,0,0,0,0,0,0,0,0,-177.219,-15062.7,3386.62,0,0,0,0,0,0,0,0,0,0,0,0,0,0,0,0,0,0,0,0,0,0,0,0
14,8,0,0,0,0,0,0,299.9,198,0,0.00427246,0.00518799,0.00427246,0.00305176,0.00274658,0.00793457,0,0,0,0,0,0,299.9,1012,0,0,0,0,0,0,0,0,0,-1.01E-05,-4.38E-07,-6.09E-06,-6.99E-06,0,0,0,0,0,0,0,0,0,0,0,0,0,0,0,0,0,0,0,0,0,0,0,0,0,-188.364,-15060.4,3409.91,0,0,0,0,0,0,0,0,0,0,0,0,0,0,0,0,0,0,0,0,0,0,0,0
14,9,0,0,0,0,0,0,299.9,198,0,0.00427246,0.00396729,0.00488281,0.00274658,0.00366211,0.00488281,0,0,0,0,0,0,299.9,1012,0,0,0,0,0,0,0,0,0,-1.03E-05,-8.82E-07,-5.84E-06,-4.52E-06,0,0,0,0,0,0,0,0,0,0,0,0,0,0,0,0,0,0,0,0,0,0,0,0,0,-199.509,-15058,3433.21,0,0,0,0,0,0,0,0,0,0,0,0,0,0,0,0,0,0,0,0,0,0,0,0
14,10,0,0,0,0,0,0,299.9,198,0,0.00427246,0.00396729,0.00488281,0.00274658,0.00366211,0.00488281,0,0,0,0,0,0,299.9,1012,0,0,0,0,0,0,0,0,0,-1.07E-05,-1.38E-06,-5.38E-06,-2.13E-06,0,0,0,0,0,0,0,0,0,0,0,0,0,0,0,0,0,0,0,0,0,0,0,0,0,-210.654,-15055.7,3456.5,0,0,0,0,0,0,0,0,0,0,0,0,0,0,0,0,0,0,0,0,0,0,0,0
14,11,0,0,0,0,0,0,299.9,198,0,0.00457764,0.00396729,0.00488281,0.00366211,0.00396729,0.00549316,0,0,0,0,0,0,299.9,1012,0,0,0,0,0,0,0,0,0,-1.08E-05,-1.91E-06,-4.34E-06,-9.77E-07,0,0,0,0,0,0,0,0,0,0,0,0,0,0,0,0,0,0,0,0,0,0,0,0,0,-221.8,-15053.3,3479.8,0,0,0,0,0,0,0,0,0,0,0,0,0,0,0,0,0,0,0,0,0,0,0,0
14,12,0,0,0,0,0,0,299.9,198,0,0.00457764,0.00396729,0.00488281,0.00366211,0.00396729,0.00549316,0,0,0,0,0,0,299.9,1012,0,0,0,0,0,0,0,0,0,-1.07E-05,-2.55E-06,-3.16E-06,-6.99E-07,0,0,0,0,0,0,0,0,0,0,0,0,0,0,0,0,0,0,0,0,0,0,0,0,0,-232.945,-15050.9,3503.09,0,0,0,0,0,0,0,0,0,0,0,0,0,0,0,0,0,0,0,0,0,0,0,0
14,13,0,0,0,0,0,0,299.9,198,0,0.00457764,0.00488281,0.00366211,0.00427246,0.00396729,0.00488281,0,0,0,0,0,0,299.9,1012,0,0,0,0,0,0,0,0,0,-1.04E-05,-3.19E-06,-2.81E-06,-1.53E-06,0,0,0,0,0,0,0,0,0,0,0,0,0,0,0,0,0,0,0,0,0,0,0,0,0,-244.09,-15048.6,3526.39,0,0,0,0,0,0,0,0,0,0,0,0,0,0,0,0,0,0,0,0,0,0,0,0
14,14,0,0,0,0,0,0,299.9,198,0,0.00457764,0.00488281,0.00366211,0.00427246,0.00396729,0.00488281,0,0,0,0,0,0,299.9,1012,0,0,0,0,0,0,0,0,0,-1.04E-05,-3.95E-06,-2.85E-06,-3.72E-06,0,0,0,0,0,0,0,0,0,0,0,0,0,0,0,0,0,0,0,0,0,0,0,0,0,-255.235,-15046.2,3549.68,0,0,0,0,0,0,0,0,0,0,0,0,0,0,0,0,0,0,0,0,0,0,0,0
14,15,0,0,0,0,0,0,299.9,198,0,0.00366211,0.00427246,0.00488281,0.00366211,0.00305176,0.00640869,0,0,0,0,0,0,299.9,1012,0,0,0,0,0,0,0,0,0,-1.06E-05,-5.01E-06,-2.46E-06,-6.02E-06,0,0,0,0,0,0,0,0,0,0,0,0,0,0,0,0,0,0,0,0,0,0,0,0,0,-266.381,-15043.9,3572.98,0,0,0,0,0,0,0,0,0,0,0,0,0,0,0,0,0,0,0,0,0,0,0,0
14,16,0,0,0,0,0,0,299.9,198,0,0.00366211,0.00427246,0.00488281,0.00366211,0.00305176,0.00640869,0,0,0,0,0,0,299.9,1012,0,0,0,0,0,0,0,0,0,-1.01E-05,-6.13E-06,-2.13E-06,-6.96E-06,0,0,0,0,0,0,0,0,0,0,0,0,0,0,0,0,0,0,0,0,0,0,0,0,0,-277.526,-15041.5,3596.27,0,0,0,0,0,0,0,0,0,0,0,0,0,0,0,0,0,0,0,0,0,0,0,0
14,17,0,0,0,0,0,0,299.9,198,0,0.00366211,0.00457764,0.00457764,0.00366211,0.00335693,0.00579834,0,0,0,0,0,0,299.9,1012,0,0,0,0,0,0,0,0,0,-9.11E-06,-7.64E-06,-2.38E-06,-6.28E-06,0,0,0,0,0,0,0,0,0,0,0,0,0,0,0,0,0,0,0,0,0,0,0,0,0,-288.671,-15039.2,3619.56,0,0,0,0,0,0,0,0,0,0,0,0,0,0,0,0,0,0,0,0,0,0,0,0
14,18,0,0,0,0,0,0,299.9,198,0,0.00366211,0.00457764,0.00457764,0.00366211,0.00335693,0.00579834,0,0,0,0,0,0,299.9,1012,0,0,0,0,0,0,0,0,0,-8.29E-06,-1.01E-05,-2.92E-06,-4.83E-06,0,0,0,0,0,0,0,0,0,0,0,0,0,0,0,0,0,0,0,0,0,0,0,0,0,-299.816,-15036.8,3642.86,0,0,0,0,0,0,0,0,0,0,0,0,0,0,0,0,0,0,0,0,0,0,0,0
14,19,0,0,0,0,0,0,299.9,198,0,0.00488281,0.00579834,0.00793457,0.00152588,0.000305176,0.00610352,0,0,0,0,0,0,299.9,1012,0,0,0,0,0,0,0,0,0,-8.39E-06,-1.26E-05,-3.48E-06,-4.07E-06,0,0,0,0,0,0,0,0,0,0,0,0,0,0,0,0,0,0,0,0,0,0,0,0,0,-310.962,-15034.5,3666.15,0,0,0,0,0,0,0,0,0,0,0,0,0,0,0,0,0,0,0,0,0,0,0,0
15,0,0,0,0,0,0,0,299.9,198,0,0.00488281,0.00579834,0.00793457,0.00152588,0.000305176,0.00610352,0,0,0,0,0,0,299.9,1012,0,0,0,0,0,0,0,0,0,-8.91E-06,-1.41E-05,-3.95E-06,-4.55E-06,0,0,0,0,0,0,0,0,0,0,0,0,0,0,0,0,0,0,0,0,0,0,0,0,0,-322.107,-15032.1,3689.45,0,0,0,0,0,0,0,0,0,0,0,0,0,0,0,0,0,0,0,0,0,0,0,0
15,1,0,0,0,0,0,0,299.9,198,0,0.00518799,0.00396729,0.00579834,-0.000610352,0.00366211,0.00488281,0,0,0,0,0,0,299.9,1012,0,0,0,0,0,0,0,0,0,-8.04E-06,-1.38E-05,-3.89E-06,-4.96E-06,0,0,0,0,0,0,0,0,0,0,0,0,0,0,0,0,0,0,0,0,0,0,0,0,0,-345.885,-15017.6,3709.94,0,0,0,0,0,0,0,0,0,0,0,0,0,0,0,0,0,0,0,0,0,0,0,0
15,2,0,0,0,0,0,0,299.9,198,0,0.00518799,0.00396729,0.00579834,-0.000610352,0.00366211,0.00488281,0,0,0,0,0,0,299.9,1012,0,0,0,0,0,0,0,0,0,-4.56E-06,-1.24E-05,-3.12E-06,-4.45E-06,0,0,0,0,0,0,0,0,0,0,0,0,0,0,0,0,0,0,0,0,0,0,0,0,0,-369.662,-15003.1,3730.42,0,0,0,0,0,0,0,0,0,0,0,0,0,0,0,0,0,0,0,0,0,0,0,0
15,3,0,0,0,0,0,0,299.9,198,0,0.00366211,0.00854492,0.00152588,0.00335693,0.00213623,0.00640869,0,0,0,0,0,0,299.9,1012,0,0,0,0,0,0,0,0,0,3.77E-07,-1.15E-05,-2.19E-06,-4.06E-06,0,0,0,0,0,0,0,0,0,0,0,0,0,0,0,0,0,0,0,0,0,0,0,0,0,-393.44,-14988.6,3750.91,0,0,0,0,0,0,0,0,0,0,0,0,0,0,0,0,0,0,0,0,0,0,0,0
15,4,0,0,0,0,0,0,299.9,198,0,0.00366211,0.00854492,0.00152588,0.00335693,0.00213623,0.00640869,0,0,0,0,0,0,299.9,1012,0,0,0,0,0,0,0,0,0,3.88E-06,-1.19E-05,-1.75E-06,-4.41E-06,0,0,0,0,0,0,0,0,0,0,0,0,0,0,0,0,0,0,0,0,0,0,0,0,0,-417.218,-14974.1,3771.4,0,0,0,0,0,0,0,0,0,0,0,0,0,0,0,0,0,0,0,0,0,0,0,0
15,5,0,0,0,0,0,0,299.9,198,0,0.00152588,0.00701904,0.00457764,0.00213623,0.00427246,0.00701904,0,0,0,0,0,0,299.9,1012,0,0,0,0,0,0,0,0,0,3.63E-06,-1.36E-05,-2.20E-06,-4.85E-06,0,0,0,0,0,0,0,0,0,0,0,0,0,0,0,0,0,0,0,0,0,0,0,0,0,-440.996,-14959.6,3791.89,0,0,0,0,0,0,0,0,0,0,0,0,0,0,0,0,0,0,0,0,0,0,0,0
15,6,0,0,0,0,0,0,299.9,198,0,0.00152588,0.00701904,0.00457764,0.00213623,0.00427246,0.00701904,0,0,0,0,0,0,299.9,1012,0,0,0,0,0,0,0,0,0,1.32E-06,-1.62E-05,-3.97E-06,-5.14E-06,0,0,0,0,0,0,0,0,0,0,0,0,0,0,0,0,0,0,0,0,0,0,0,0,0,-464.773,-14945.1,3812.37,0,0,0,0,0,0,0,0,0,0,0,0,0,0,0,0,0,0,0,0,0,0,0,0
15,7,0,0,0,0,0,0,299.9,198,0,0.00335693,0.00518799,0.00549316,0.00366211,0.00335693,0.00549316,0,0,0,0,0,0,299.9,1012,0,0,0,0,0,0,0,0,0,4.91E-07,-1.91E-05,-6.65E-06,-5.48E-06,0,0,0,0,0,0,0,0,0,0,0,0,0,0,0,0,0,0,0,0,0,0,0,0,0,-488.551,-14930.6,3832.86,0,0,0,0,0,0,0,0,0,0,0,0,0,0,0,0,0,0,0,0,0,0,0,0
15,8,0,0,0,0,0,0,299.9,198,0,0.00335693,0.00518799,0.00549316,0.00366211,0.00335693,0.00549316,0,0,0,0,0,0,299.9,1012,0,0,0,0,0,0,0,0,0,4.82E-07,-2.16E-05,-8.34E-06,-5.43E-06,0,0,0,0,0,0,0,0,0,0,0,0,0,0,0,0,0,0,0,0,0,0,0,0,0,-512.329,-14916.1,3853.35,0,0,0,0,0,0,0,0,0,0,0,0,0,0,0,0,0,0,0,0,0,0,0,0
15,9,0,0,0,0,0,0,299.9,198,0,0.00488281,0.00366211,0.00579834,0.00366211,0.00305176,0.00640869,0,0,0,0,0,0,299.9,1012,0,0,0,0,0,0,0,0,0,-1.09E-06,-2.26E-05,-7.59E-06,-4.69E-06,0,0,0,0,0,0,0,0,0,0,0,0,0,0,0,0,0,0,0,0,0,0,0,0,0,-536.106,-14901.6,3873.84,0,0,0,0,0,0,0,0,0,0,0,0,0,0,0,0,0,0,0,0,0,0,0,0
15,10,0,0,0,0,0,0,299.9,198,0,0.00488281,0.00366211,0.00579834,0.00366211,0.00305176,0.00640869,0,0,0,0,0,0,299.9,1012,0,0,0,0,0,0,0,0,0,-3.02E-06,-2.20E-05,-5.01E-06,-4.05E-06,0,0,0,0,0,0,0,0,0,0,0,0,0,0,0,0,0,0,0,0,0,0,0,0,0,-559.884,-14887.1,3894.32,0,0,0,0,0,0,0,0,0,0,0,0,0,0,0,0,0,0,0,0,0,0,0,0
15,11,0,0,0,0,0,0,299.9,198,0,0.00244141,0.00335693,0.00457764,0.00274658,0.00396729,0.00640869,0,0,0,0,0,0,299.9,1012,0,0,0,0,0,0,0,0,0,-3.32E-06,-2.01E-05,-2.41E-06,-3.97E-06,0,0,0,0,0,0,0,0,0,0,0,0,0,0,0,0,0,0,0,0,0,0,0,0,0,-583.662,-14872.6,3914.81,0,0,0,0,0,0,0,0,0,0,0,0,0,0,0,0,0,0,0,0,0,0,0,0
15,12,0,0,0,0,0,0,299.9,198,0,0.00244141,0.00335693,0.00457764,0.00274658,0.00396729,0.00640869,0,0,0,0,0,0,299.9,1012,0,0,0,0,0,0,0,0,0,-2.40E-06,-1.78E-05,-1.58E-06,-3.84E-06,0,0,0,0,0,0,0,0,0,0,0,0,0,0,0,0,0,0,0,0,0,0,0,0,0,-607.44,-14858.1,3935.3,0,0,0,0,0,0,0,0,0,0,0,0,0,0,0,0,0,0,0,0,0,0,0,0
15,13,0,0,0,0,0,0,299.9,198,0,0.00335693,0.00427246,0.00518799,0.00213623,0.00305176,0.00457764,0,0,0,0,0,0,299.9,1012,0,0,0,0,0,0,0,0,0,-1.33E-06,-1.61E-05,-2.96E-06,-3.69E-06,0,0,0,0,0,0,0,0,0,0,0,0,0,0,0,0,0,0,0,0,0,0,0,0,0,-631.217,-14843.6,3955.79,0,0,0,0,0,0,0,0,0,0,0,0,0,0,0,0,0,0,0,0,0,0,0,0
15,14,0,0,0,0,0,0,299.9,198,0,0.00335693,0.00427246,0.00518799,0.00213623,0.00305176,0.00457764,0,0,0,0,0,0,299.9,1012,0,0,0,0,0,0,0,0,0,-6.91E-07,-1.48E-05,-5.20E-06,-4.35E-06,0,0,0,0,0,0,0,0,0,0,0,0,0,0,0,0,0,0,0,0,0,0,0,0,0,-657.446,-14824.2,3975.45,0,0,0,0,0,0,0,0,0,0,0,0,0,0,0,0,0,0,0,0,0,0,0,0
15,15,0,0,0,0,0,0,299.9,198,0,0.00488281,0.00518799,0.00518799,0.00244141,0.00457764,0.00579834,0,0,0,0,0,0,299.9,1012,0,0,0,0,0,0,0,0,0,-1.17E-06,-1.35E-05,-6.94E-06,-5.68E-06,0,0,0,0,0,0,0,0,0,0,0,0,0,0,0,0,0,0,0,0,0,0,0,0,0,-686.125,-14799.9,3994.3,0,0,0,0,0,0,0,0,0,0,0,0,0,0,0,0,0,0,0,0,0,0,0,0
15,16,0,0,0,0,0,0,299.9,198,0,0.00488281,0.00518799,0.00518799,0.00244141,0.00457764,0.00579834,0,0,0,0,0,0,299.9,1012,0,0,0,0,0,0,0,0,0,-2.79E-06,-1.19E-05,-7.78E-06,-6.66E-06,0,0,0,0,0,0,0,0,0,0,0,0,0,0,0,0,0,0,0,0,0,0,0,0,0,-714.804,-14775.6,4013.15,0,0,0,0,0,0,0,0,0,0,0,0,0,0,0,0,0,0,0,0,0,0,0,0
15,17,0,0,0,0,0,0,299.9,198,0,0.00427246,0.00396729,0.00549316,0.00671387,0.00427246,0.00549316,0,0,0,0,0,0,299.9,1012,0,0,0,0,0,0,0,0,0,-5.13E-06,-1.07E-05,-8.67E-06,-7.08E-06,0,0,0,0,0,0,0,0,0,0,0,0,0,0,0,0,0,0,0,0,0,0,0,0,0,-743.484,-14751.3,4032,0,0,0,0,0,0,0,0,0,0,0,0,0,0,0,0,0,0,0,0,0,0,0,0
15,18,0,0,0,0,0,0,299.9,198,0,0.00427246,0.00396729,0.00549316,0.00671387,0.00427246,0.00549316,0,0,0,0,0,0,299.9,1012,0,0,0,0,0,0,0,0,0,-8.77E-06,-1.05E-05,-1.12E-05,-7.20E-06,0,0,0,0,0,0,0,0,0,0,0,0,0,0,0,0,0,0,0,0,0,0,0,0,0,-772.163,-14727,4050.85,0,0,0,0,0,0,0,0,0,0,0,0,0,0,0,0,0,0,0,0,0,0,0,0
15,19,0,0,0,0,0,0,299.9,198,0,0.00305176,0.00274658,0.00305176,-0.000610352,0.00396729,0.00457764,0,0,0,0,0,0,299.9,1012,0,0,0,0,0,0,0,0,0,-1.29E-05,-1.02E-05,-1.42E-05,-6.43E-06,0,0,0,0,0,0,0,0,0,0,0,0,0,0,0,0,0,0,0,0,0,0,0,0,0,-800.842,-14702.7,4069.69,0,0,0,0,0,0,0,0,0,0,0,0,0,0,0,0,0,0,0,0,0,0,0,0
16,0,0,0,0,0,0,0,299.9,198,0,0.00305176,0.00274658,0.00305176,-0.000610352,0.00396729,0.00457764,0,0,0,0,0,0,299.9,1012,0,0,0,0,0,0,0,0,0,-1.45E-05,-8.99E-06,-1.48E-05,-4.90E-06,0,0,0,0,0,0,0,0,0,0,0,0,0,0,0,0,0,0,0,0,0,0,0,0,0,-829.521,-14678.4,4088.54,0,0,0,0,0,0,0,0,0,0,0,0,0,0,0,0,0,0,0,0,0,0,0,0
16,1,0,0,0,0,0,0,299.9,198,0,0.00427246,0.00701904,0.00396729,0,0.00457764,0.00457764,0,0,0,0,0,0,299.9,1012,0,0,0,0,0,0,0,0,0,-1.45E-05,-7.76E-06,-1.37E-05,-4.95E-06,0,0,0,0,0,0,0,0,0,0,0,0,0,0,0,0,0,0,0,0,0,0,0,0,0,-858.201,-14654,4107.39,0,0,0,0,0,0,0,0,0,0,0,0,0,0,0,0,0,0,0,0,0,0,0,0
16,2,0,0,0,0,0,0,299.9,198,0,0.00427246,0.00701904,0.00396729,0,0.00457764,0.00457764,0,0,0,0,0,0,299.9,1012,0,0,0,0,0,0,0,0,0,-1.59E-05,-7.08E-06,-1.34E-05,-7.47E-06,0,0,0,0,0,0,0,0,0,0,0,0,0,0,0,0,0,0,0,0,0,0,0,0,0,-886.88,-14629.7,4126.24,0,0,0,0,0,0,0,0,0,0,0,0,0,0,0,0,0,0,0,0,0,0,0,0
16,3,0,0,0,0,0,0,299.9,198,0,0.00305176,0.00427246,0.00915527,0.0012207,0.00274658,0.00762939,0,0,0,0,0,0,299.9,1012,0,0,0,0,0,0,0,0,0,-1.87E-05,-6.50E-06,-1.37E-05,-1.01E-05,0,0,0,0,0,0,0,0,0,0,0,0,0,0,0,0,0,0,0,0,0,0,0,0,0,-915.559,-14605.4,4145.08,0,0,0,0,0,0,0,0,0,0,0,0,0,0,0,0,0,0,0,0,0,0,0,0
16,4,0,0,0,0,0,0,299.9,198,0,0.00305176,0.00427246,0.00915527,0.0012207,0.00274658,0.00762939,0,0,0,0,0,0,299.9,1012,0,0,0,0,0,0,0,0,0,-2.14E-05,-6.14E-06,-1.37E-05,-1.11E-05,0,0,0,0,0,0,0,0,0,0,0,0,0,0,0,0,0,0,0,0,0,0,0,0,0,-944.238,-14581.1,4163.93,0,0,0,0,0,0,0,0,0,0,0,0,0,0,0,0,0,0,0,0,0,0,0,0
16,5,0,0,0,0,0,0,299.9,198,0,0.000610352,0.00396729,0.00488281,0.00671387,0.00549316,0.00518799,0,0,0,0,0,0,299.9,1012,0,0,0,0,0,0,0,0,0,-2.38E-05,-6.59E-06,-1.38E-05,-1.09E-05,0,0,0,0,0,0,0,0,0,0,0,0,0,0,0,0,0,0,0,0,0,0,0,0,0,-972.917,-14556.8,4182.78,0,0,0,0,0,0,0,0,0,0,0,0,0,0,0,0,0,0,0,0,0,0,0,0
16,6,0,0,0,0,0,0,299.9,198,0,0.000610352,0.00396729,0.00488281,0.00671387,0.00549316,0.00518799,0,0,0,0,0,0,299.9,1012,0,0,0,0,0,0,0,0,0,-2.59E-05,-7.67E-06,-1.49E-05,-1.05E-05,0,0,0,0,0,0,0,0,0,0,0,0,0,0,0,0,0,0,0,0,0,0,0,0,0,-1001.6,-14532.5,4201.63,0,0,0,0,0,0,0,0,0,0,0,0,0,0,0,0,0,0,0,0,0,0,0,0
16,7,0,0,0,0,0,0,299.9,198,0,0.00457764,0.00457764,0.00488281,0.00396729,0.00640869,0.00579834,0,0,0,0,0,0,299.9,1012,0,0,0,0,0,0,0,0,0,-2.76E-05,-8.46E-06,-1.66E-05,-1.02E-05,0,0,0,0,0,0,0,0,0,0,0,0,0,0,0,0,0,0,0,0,0,0,0,0,0,-1030.28,-14508.2,4220.48,0,0,0,0,0,0,0,0,0,0,0,0,0,0,0,0,0,0,0,0,0,0,0,0
16,8,0,0,0,0,0,0,299.9,198,0,0.00457764,0.00457764,0.00488281,0.00396729,0.00640869,0.00579834,0,0,0,0,0,0,299.9,1012,0,0,0,0,0,0,0,0,0,-2.87E-05,-8.03E-06,-1.71E-05,-9.16E-06,0,0,0,0,0,0,0,0,0,0,0,0,0,0,0,0,0,0,0,0,0,0,0,0,0,-1056.78,-14479.7,4240.1,0,0,0,0,0,0,0,0,0,0,0,0,0,0,0,0,0,0,0,0,0,0,0,0
16,9,0,0,0,0,0,0,299.9,198,0,0.00457764,0.00396729,0.00732422,0.00244141,0.00305176,0.00579834,0,0,0,0,0,0,299.9,1012,0,0,0,0,0,0,0,0,0,-2.95E-05,-6.68E-06,-1.58E-05,-7.41E-06,0,0,0,0,0,0,0,0,0,0,0,0,0,0,0,0,0,0,0,0,0,0,0,0,0,-1083.28,-14451.3,4259.73,0,0,0,0,0,0,0,0,0,0,0,0,0,0,0,0,0,0,0,0,0,0,0,0
16,10,0,0,0,0,0,0,299.9,198,0,0.00457764,0.00396729,0.00732422,0.00244141,0.00305176,0.00579834,0,0,0,0,0,0,299.9,1012,0,0,0,0,0,0,0,0,0,-2.99E-05,-6.11E-06,-1.46E-05,-6.64E-06,0,0,0,0,0,0,0,0,0,0,0,0,0,0,0,0,0,0,0,0,0,0,0,0,0,-1109.78,-14422.8,4279.35,0,0,0,0,0,0,0,0,0,0,0,0,0,0,0,0,0,0,0,0,0,0,0,0
16,11,0,0,0,0,0,0,299.9,198,0,0.00274658,0.00488281,0.00488281,0.00183105,0.00335693,0.00457764,0,0,0,0,0,0,299.9,1012,0,0,0,0,0,0,0,0,0,-2.94E-05,-6.62E-06,-1.49E-05,-7.21E-06,0,0,0,0,0,0,0,0,0,0,0,0,0,0,0,0,0,0,0,0,0,0,0,0,0,-1136.28,-14394.4,4298.98,0,0,0,0,0,0,0,0,0,0,0,0,0,0,0,0,0,0,0,0,0,0,0,0
16,12,0,0,0,0,0,0,299.9,198,0,0.00274658,0.00488281,0.00488281,0.00183105,0.00335693,0.00457764,0,0,0,0,0,0,299.9,1012,0,0,0,0,0,0,0,0,0,-2.74E-05,-6.80E-06,-1.61E-05,-7.51E-06,0,0,0,0,0,0,0,0,0,0,0,0,0,0,0,0,0,0,0,0,0,0,0,0,0,-1162.78,-14365.9,4318.6,0,0,0,0,0,0,0,0,0,0,0,0,0,0,0,0,0,0,0,0,0,0,0,0
16,13,0,0,0,0,0,0,299.9,198,0,0.00335693,0.00427246,0.00488281,0.00152588,0.00274658,0.00549316,0,0,0,0,0,0,299.9,1012,0,0,0,0,0,0,0,0,0,-2.48E-05,-6.58E-06,-1.69E-05,-6.94E-06,0,0,0,0,0,0,0,0,0,0,0,0,0,0,0,0,0,0,0,0,0,0,0,0,0,-1189.28,-14337.5,4338.23,0,0,0,0,0,0,0,0,0,0,0,0,0,0,0,0,0,0,0,0,0,0,0,0
16,14,0,0,0,0,0,0,299.9,198,0,0.00335693,0.00427246,0.00488281,0.00152588,0.00274658,0.00549316,0,0,0,0,0,0,299.9,1012,0,0,0,0,0,0,0,0,0,-2.30E-05,-7.15E-06,-1.66E-05,-6.35E-06,0,0,0,0,0,0,0,0,0,0,0,0,0,0,0,0,0,0,0,0,0,0,0,0,0,-1215.78,-14309,4357.85,0,0,0,0,0,0,0,0,0,0,0,0,0,0,0,0,0,0,0,0,0,0,0,0
16,15,0,0,0,0,0,0,299.9,198,0,0.00396729,0.00396729,0.00549316,0.00335693,0.00305176,0.00488281,0,0,0,0,0,0,299.9,1012,0,0,0,0,0,0,0,0,0,-2.20E-05,-8.49E-06,-1.58E-05,-6.18E-06,0,0,0,0,0,0,0,0,0,0,0,0,0,0,0,0,0,0,0,0,0,0,0,0,0,-1242.29,-14280.6,4377.48,0,0,0,0,0,0,0,0,0,0,0,0,0,0,0,0,0,0,0,0,0,0,0,0
16,16,0,0,0,0,0,0,299.9,198,0,0.00396729,0.00396729,0.00549316,0.00335693,0.00305176,0.00488281,0,0,0,0,0,0,299.9,1012,0,0,0,0,0,0,0,0,0,-2.12E-05,-9.95E-06,-1.57E-05,-6.27E-06,0,0,0,0,0,0,0,0,0,0,0,0,0,0,0,0,0,0,0,0,0,0,0,0,0,-1268.79,-14252.1,4397.1,0,0,0,0,0,0,0,0,0,0,0,0,0,0,0,0,0,0,0,0,0,0,0,0
16,17,0,0,0,0,0,0,299.9,198,0,0.00366211,0.00396729,0.00549316,0.00244141,0.00335693,0.00427246,0,0,0,0,0,0,299.9,1012,0,0,0,0,0,0,0,0,0,-2.08E-05,-1.16E-05,-1.60E-05,-6.66E-06,0,0,0,0,0,0,0,0,0,0,0,0,0,0,0,0,0,0,0,0,0,0,0,0,0,-1295.29,-14223.7,4416.72,0,0,0,0,0,0,0,0,0,0,0,0,0,0,0,0,0,0,0,0,0,0,0,0
16,18,0,0,0,0,0,0,299.9,198,0,0.00366211,0.00396729,0.00549316,0.00244141,0.00335693,0.00427246,0,0,0,0,0,0,299.9,1012,0,0,0,0,0,0,0,0,0,-2.08E-05,-1.36E-05,-1.59E-05,-7.47E-06,0,0,0,0,0,0,0,0,0,0,0,0,0,0,0,0,0,0,0,0,0,0,0,0,0,-1321.79,-14195.2,4436.35,0,0,0,0,0,0,0,0,0,0,0,0,0,0,0,0,0,0,0,0,0,0,0,0
16,19,0,0,0,0,0,0,299.9,198,0,0.00549316,0.00518799,0.00427246,0.0012207,0.00305176,0.00366211,0,0,0,0,0,0,299.9,1012,0,0,0,0,0,0,0,0,0,-2.06E-05,-1.53E-05,-1.50E-05,-8.49E-06,0,0,0,0,0,0,0,0,0,0,0,0,0,0,0,0,0,0,0,0,0,0,0,0,0,-1348.29,-14166.8,4455.97,0,0,0,0,0,0,0,0,0,0,0,0,0,0,0,0,0,0,0,0,0,0,0,0
17,0,0,0,0,0,0,0,299.9,198,0,0.00549316,0.00518799,0.00427246,0.0012207,0.00305176,0.00366211,0,0,0,0,0,0,299.9,1012,0,0,0,0,0,0,0,0,0,-2.02E-05,-1.61E-05,-1.38E-05,-8.84E-06,0,0,0,0,0,0,0,0,0,0,0,0,0,0,0,0,0,0,0,0,0,0,0,0,0,-1374.79,-14138.3,4475.6,0,0,0,0,0,0,0,0,0,0,0,0,0,0,0,0,0,0,0,0,0,0,0,0
17,1,0,0,0,0,0,0,299.9,198,0,0.00427246,0.00579834,0.0088501,0.00396729,0.00335693,0.00518799,0,0,0,0,0,0,299.9,1012,0,0,0,0,0,0,0,0,0,-2.01E-05,-1.58E-05,-1.34E-05,-7.64E-06,0,0,0,0,0,0,0,0,0,0,0,0,0,0,0,0,0,0,0,0,0,0,0,0,0,-1400.23,-14112.1,4498.32,0,0,0,0,0,0,0,0,0,0,0,0,0,0,0,0,0,0,0,0,0,0,0,0
17,2,0,0,0,0,0,0,299.9,198,0,0.00427246,0.00579834,0.0088501,0.00396729,0.00335693,0.00518799,0,0,0,0,0,0,299.9,1012,0,0,0,0,0,0,0,0,0,-1.96E-05,-1.47E-05,-1.34E-05,-5.76E-06,0,0,0,0,0,0,0,0,0,0,0,0,0,0,0,0,0,0,0,0,0,0,0,0,0,-1424.61,-14088.1,4524.12,0,0,0,0,0,0,0,0,0,0,0,0,0,0,0,0,0,0,0,0,0,0,0,0
17,3,0,0,0,0,0,0,299.9,198,0,0.00335693,0.00640869,0.00732422,0.00183105,0.00305176,0.00549316,0,0,0,0,0,0,299.9,1012,0,0,0,0,0,0,0,0,0,-1.81E-05,-1.32E-05,-1.26E-05,-4.91E-06,0,0,0,0,0,0,0,0,0,0,0,0,0,0,0,0,0,0,0,0,0,0,0,0,0,-1448.99,-14064.1,4549.93,0,0,0,0,0,0,0,0,0,0,0,0,0,0,0,0,0,0,0,0,0,0,0,0
17,4,0,0,0,0,0,0,299.9,198,0,0.00335693,0.00640869,0.00732422,0.00183105,0.00305176,0.00549316,0,0,0,0,0,0,299.9,1012,0,0,0,0,0,0,0,0,0,-1.65E-05,-1.23E-05,-1.15E-05,-5.43E-06,0,0,0,0,0,0,0,0,0,0,0,0,0,0,0,0,0,0,0,0,0,0,0,0,0,-1473.36,-14040.1,4575.74,0,0,0,0,0,0,0,0,0,0,0,0,0,0,0,0,0,0,0,0,0,0,0,0
17,5,0,0,0,0,0,0,299.9,198,0,0.00366211,0.00427246,0.00488281,0.00244141,0.00366211,0.00549316,0,0,0,0,0,0,299.9,1012,0,0,0,0,0,0,0,0,0,-1.57E-05,-1.26E-05,-1.08E-05,-6.72E-06,0,0,0,0,0,0,0,0,0,0,0,0,0,0,0,0,0,0,0,0,0,0,0,0,0,-1497.74,-14016.1,4601.55,0,0,0,0,0,0,0,0,0,0,0,0,0,0,0,0,0,0,0,0,0,0,0,0
17,6,0,0,0,0,0,0,299.9,198,0,0.00366211,0.00427246,0.00488281,0.00244141,0.00366211,0.00549316,0,0,0,0,0,0,299.9,1012,0,0,0,0,0,0,0,0,0,-1.46E-05,-1.33E-05,-1.07E-05,-7.58E-06,0,0,0,0,0,0,0,0,0,0,0,0,0,0,0,0,0,0,0,0,0,0,0,0,0,-1522.12,-13992.1,4627.36,0,0,0,0,0,0,0,0,0,0,0,0,0,0,0,0,0,0,0,0,0,0,0,0
17,7,0,0,0,0,0,0,299.9,198,0,0.00396729,0.00335693,0.00396729,0.00244141,0.00305176,0.00549316,0,0,0,0,0,0,299.9,1012,0,0,0,0,0,0,0,0,0,-1.29E-05,-1.32E-05,-1.10E-05,-7.45E-06,0,0,0,0,0,0,0,0,0,0,0,0,0,0,0,0,0,0,0,0,0,0,0,0,0,-1546.5,-13968.1,4653.17,0,0,0,0,0,0,0,0,0,0,0,0,0,0,0,0,0,0,0,0,0,0,0,0
17,8,0,0,0,0,0,0,299.9,198,0,0.00396729,0.00335693,0.00396729,0.00244141,0.00305176,0.00549316,0,0,0,0,0,0,299.9,1012,0,0,0,0,0,0,0,0,0,-1.11E-05,-1.20E-05,-1.07E-05,-8.23E-06,0,0,0,0,0,0,0,0,0,0,0,0,0,0,0,0,0,0,0,0,0,0,0,0,0,-1570.88,-13944.1,4678.98,0,0,0,0,0,0,0,0,0,0,0,0,0,0,0,0,0,0,0,0,0,0,0,0
17,9,0,0,0,0,0,0,299.9,198,0,0.00305176,0.00396729,0.00457764,0.00305176,0.00396729,0.00518799,0,0,0,0,0,0,299.9,1012,0,0,0,0,0,0,0,0,0,-9.62E-06,-1.07E-05,-8.94E-06,-1.06E-05,0,0,0,0,0,0,0,0,0,0,0,0,0,0,0,0,0,0,0,0,0,0,0,0,0,-1595.25,-13920.2,4704.79,0,0,0,0,0,0,0,0,0,0,0,0,0,0,0,0,0,0,0,0,0,0,0,0
17,10,0,0,0,0,0,0,299.9,198,0,0.00305176,0.00396729,0.00457764,0.00305176,0.00396729,0.00518799,0,0,0,0,0,0,299.9,1012,0,0,0,0,0,0,0,0,0,-8.77E-06,-1.07E-05,-6.78E-06,-1.21E-05,0,0,0,0,0,0,0,0,0,0,0,0,0,0,0,0,0,0,0,0,0,0,0,0,0,-1619.63,-13896.2,4730.6,0,0,0,0,0,0,0,0,0,0,0,0,0,0,0,0,0,0,0,0,0,0,0,0
17,11,0,0,0,0,0,0,299.9,198,0,0.00427246,0.00396729,0.00366211,0.00427246,0.00274658,0.00518799,0,0,0,0,0,0,299.9,1012,0,0,0,0,0,0,0,0,0,-8.15E-06,-1.26E-05,-5.58E-06,-1.22E-05,0,0,0,0,0,0,0,0,0,0,0,0,0,0,0,0,0,0,0,0,0,0,0,0,0,-1644.01,-13872.2,4756.4,0,0,0,0,0,0,0,0,0,0,0,0,0,0,0,0,0,0,0,0,0,0,0,0
17,12,0,0,0,0,0,0,299.9,198,0,0.00427246,0.00396729,0.00366211,0.00427246,0.00274658,0.00518799,0,0,0,0,0,0,299.9,1012,0,0,0,0,0,0,0,0,0,-7.21E-06,-1.55E-05,-5.51E-06,-1.27E-05,0,0,0,0,0,0,0,0,0,0,0,0,0,0,0,0,0,0,0,0,0,0,0,0,0,-1668.39,-13848.2,4782.21,0,0,0,0,0,0,0,0,0,0,0,0,0,0,0,0,0,0,0,0,0,0,0,0
17,13,0,0,0,0,0,0,299.9,198,0,0.00244141,0.00427246,0.00549316,0.00427246,0.00305176,0.00549316,0,0,0,0,0,0,299.9,1012,0,0,0,0,0,0,0,0,0,-6.63E-06,-1.75E-05,-5.59E-06,-1.34E-05,0,0,0,0,0,0,0,0,0,0,0,0,0,0,0,0,0,0,0,0,0,0,0,0,0,-1692.76,-13824.2,4808.02,0,0,0,0,0,0,0,0,0,0,0,0,0,0,0,0,0,0,0,0,0,0,0,0
17,14,0,0,0,0,0,0,299.9,198,0,0.00244141,0.00427246,0.00549316,0.00427246,0.00305176,0.00549316,0,0,0,0,0,0,299.9,1012,0,0,0,0,0,0,0,0,0,-7.15E-06,-1.80E-05,-5.03E-06,-1.28E-05,0,0,0,0,0,0,0,0,0,0,0,0,0,0,0,0,0,0,0,0,0,0,0,0,0,-1717.14,-13800.2,4833.83,0,0,0,0,0,0,0,0,0,0,0,0,0,0,0,0,0,0,0,0,0,0,0,0
17,15,0,0,0,0,0,0,299.9,198,0,0.00335693,0.00457764,0.00610352,0.00457764,0.00274658,0.00518799,0,0,0,0,0,0,299.9,1012,0,0,0,0,0,0,0,0,0,-7.80E-06,-1.83E-05,-4.14E-06,-1.15E-05,0,0,0,0,0,0,0,0,0,0,0,0,0,0,0,0,0,0,0,0,0,0,0,0,0,-1739.56,-13782.3,4866.09,0,0,0,0,0,0,0,0,0,0,0,0,0,0,0,0,0,0,0,0,0,0,0,0
17,16,0,0,0,0,0,0,299.9,198,0,0.00335693,0.00457764,0.00610352,0.00457764,0.00274658,0.00518799,0,0,0,0,0,0,299.9,1012,0,0,0,0,0,0,0,0,0,-7.73E-06,-1.94E-05,-3.41E-06,-1.03E-05,0,0,0,0,0,0,0,0,0,0,0,0,0,0,0,0,0,0,0,0,0,0,0,0,0,-1761.98,-13764.3,4898.35,0,0,0,0,0,0,0,0,0,0,0,0,0,0,0,0,0,0,0,0,0,0,0,0
17,17,0,0,0,0,0,0,299.9,198,0,0.00305176,0.00518799,0.00427246,0.00549316,0.00305176,0.00488281,0,0,0,0,0,0,299.9,1012,0,0,0,0,0,0,0,0,0,-7.53E-06,-2.01E-05,-2.83E-06,-9.51E-06,0,0,0,0,0,0,0,0,0,0,0,0,0,0,0,0,0,0,0,0,0,0,0,0,0,-1784.39,-13746.4,4930.6,0,0,0,0,0,0,0,0,0,0,0,0,0,0,0,0,0,0,0,0,0,0,0,0
17,18,0,0,0,0,0,0,299.9,198,0,0.00305176,0.00518799,0.00427246,0.00549316,0.00305176,0.00488281,0,0,0,0,0,0,299.9,1012,0,0,0,0,0,0,0,0,0,-7.42E-06,-1.91E-05,-2.66E-06,-8.65E-06,0,0,0,0,0,0,0,0,0,0,0,0,0,0,0,0,0,0,0,0,0,0,0,0,0,-1806.81,-13728.5,4962.86,0,0,0,0,0,0,0,0,0,0,0,0,0,0,0,0,0,0,0,0,0,0,0,0
17,19,0,0,0,0,0,0,299.9,198,0,0.00183105,0.00701904,0.00701904,-0.00610352,0.00274658,0.00701904,0,0,0,0,0,0,299.9,1012,0,0,0,0,0,0,0,0,0,-6.73E-06,-1.64E-05,-3.31E-06,-7.69E-06,0,0,0,0,0,0,0,0,0,0,0,0,0,0,0,0,0,0,0,0,0,0,0,0,0,-1829.23,-13710.6,4995.12,0,0,0,0,0,0,0,0,0,0,0,0,0,0,0,0,0,0,0,0,0,0,0,0
18,0,0,0,0,0,0,0,299.9,198,0,0.00183105,0.00701904,0.00701904,-0.00610352,0.00274658,0.00701904,0,0,0,0,0,0,299.9,1012,0,0,0,0,0,0,0,0,0,-5.68E-06,-1.35E-05,-4.24E-06,-7.15E-06,0,0,0,0,0,0,0,0,0,0,0,0,0,0,0,0,0,0,0,0,0,0,0,0,0,-1851.64,-13692.7,5027.38,0,0,0,0,0,0,0,0,0,0,0,0,0,0,0,0,0,0,0,0,0,0,0,0
18,1,0,0,0,0,0,0,299.9,198,0,0.00396729,0.00671387,0.00366211,0.00274658,0.00305176,0.00549316,0,0,0,0,0,0,299.9,1012,0,0,0,0,0,0,0,0,0,-5.32E-06,-1.18E-05,-4.49E-06,-7.47E-06,0,0,0,0,0,0,0,0,0,0,0,0,0,0,0,0,0,0,0,0,0,0,0,0,0,-1874.06,-13674.7,5059.64,0,0,0,0,0,0,0,0,0,0,0,0,0,0,0,0,0,0,0,0,0,0,0,0
18,2,0,0,0,0,0,0,299.9,198,0,0.00396729,0.00671387,0.00366211,0.00274658,0.00305176,0.00549316,0,0,0,0,0,0,299.9,1012,0,0,0,0,0,0,0,0,0,-6.01E-06,-1.10E-05,-4.05E-06,-8.10E-06,0,0,0,0,0,0,0,0,0,0,0,0,0,0,0,0,0,0,0,0,0,0,0,0,0,-1896.48,-13656.8,5091.9,0,0,0,0,0,0,0,0,0,0,0,0,0,0,0,0,0,0,0,0,0,0,0,0
18,3,0,0,0,0,0,0,299.9,198,0,0.00366211,0.00488281,0.00335693,0.00335693,0.00305176,0.00427246,0,0,0,0,0,0,299.9,1012,0,0,0,0,0,0,0,0,0,-6.93E-06,-1.04E-05,-3.67E-06,-8.14E-06,0,0,0,0,0,0,0,0,0,0,0,0,0,0,0,0,0,0,0,0,0,0,0,0,0,-1918.9,-13638.9,5124.15,0,0,0,0,0,0,0,0,0,0,0,0,0,0,0,0,0,0,0,0,0,0,0,0
18,4,0,0,0,0,0,0,299.9,198,0,0.00366211,0.00488281,0.00335693,0.00335693,0.00305176,0.00427246,0,0,0,0,0,0,299.9,1012,0,0,0,0,0,0,0,0,0,-6.49E-06,-9.81E-06,-3.95E-06,-7.38E-06,0,0,0,0,0,0,0,0,0,0,0,0,0,0,0,0,0,0,0,0,0,0,0,0,0,-1941.31,-13621,5156.41,0,0,0,0,0,0,0,0,0,0,0,0,0,0,0,0,0,0,0,0,0,0,0,0
18,5,0,0,0,0,0,0,299.9,198,0,0.000610352,0.00274658,0.00457764,0.00457764,0.00305176,0.00640869,0,0,0,0,0,0,299.9,1012,0,0,0,0,0,0,0,0,0,-4.59E-06,-9.38E-06,-5.25E-06,-6.23E-06,0,0,0,0,0,0,0,0,0,0,0,0,0,0,0,0,0,0,0,0,0,0,0,0,0,-1963.73,-13603,5188.67,0,0,0,0,0,0,0,0,0,0,0,0,0,0,0,0,0,0,0,0,0,0,0,0
18,6,0,0,0,0,0,0,299.9,198,0,0.000610352,0.00274658,0.00457764,0.00457764,0.00305176,0.00640869,0,0,0,0,0,0,299.9,1012,0,0,0,0,0,0,0,0,0,-3.37E-06,-8.83E-06,-7.65E-06,-5.33E-06,0,0,0,0,0,0,0,0,0,0,0,0,0,0,0,0,0,0,0,0,0,0,0,0,0,-1986.15,-13585.1,5220.93,0,0,0,0,0,0,0,0,0,0,0,0,0,0,0,0,0,0,0,0,0,0,0,0
18,7,0,0,0,0,0,0,299.9,198,0,0.00457764,0.00518799,0.00457764,0.00366211,0.00335693,0.00610352,0,0,0,0,0,0,299.9,1012,0,0,0,0,0,0,0,0,0,-3.88E-06,-8.02E-06,-1.01E-05,-5.14E-06,0,0,0,0,0,0,0,0,0,0,0,0,0,0,0,0,0,0,0,0,0,0,0,0,0,-2008.56,-13567.2,5253.19,0,0,0,0,0,0,0,0,0,0,0,0,0,0,0,0,0,0,0,0,0,0,0,0
18,8,0,0,0,0,0,0,299.9,198,0,0.00457764,0.00518799,0.00457764,0.00366211,0.00335693,0.00610352,0,0,0,0,0,0,299.9,1012,0,0,0,0,0,0,0,0,0,-4.92E-06,-7.31E-06,-1.07E-05,-5.53E-06,0,0,0,0,0,0,0,0,0,0,0,0,0,0,0,0,0,0,0,0,0,0,0,0,0,-2028.05,-13547.5,5284.29,0,0,0,0,0,0,0,0,0,0,0,0,0,0,0,0,0,0,0,0,0,0,0,0
18,9,0,0,0,0,0,0,299.9,198,0,0.00488281,0.00396729,0.00579834,0.00366211,0.00274658,0.00579834,0,0,0,0,0,0,299.9,1012,0,0,0,0,0,0,0,0,0,-5.44E-06,-7.15E-06,-9.06E-06,-5.94E-06,0,0,0,0,0,0,0,0,0,0,0,0,0,0,0,0,0,0,0,0,0,0,0,0,0,-2044.61,-13526,5314.25,0,0,0,0,0,0,0,0,0,0,0,0,0,0,0,0,0,0,0,0,0,0,0,0
18,10,0,0,0,0,0,0,299.9,198,0,0.00488281,0.00396729,0.00579834,0.00366211,0.00274658,0.00579834,0,0,0,0,0,0,299.9,1012,0,0,0,0,0,0,0,0,0,-5.39E-06,-7.54E-06,-6.85E-06,-5.92E-06,0,0,0,0,0,0,0,0,0,0,0,0,0,0,0,0,0,0,0,0,0,0,0,0,0,-2061.17,-13504.5,5344.21,0,0,0,0,0,0,0,0,0,0,0,0,0,0,0,0,0,0,0,0,0,0,0,0
18,11,0,0,0,0,0,0,299.9,198,0,0.00335693,0.00488281,0.00488281,0.00366211,0.00305176,0.00549316,0,0,0,0,0,0,299.9,1012,0,0,0,0,0,0,0,0,0,-4.90E-06,-7.64E-06,-5.92E-06,-5.74E-06,0,0,0,0,0,0,0,0,0,0,0,0,0,0,0,0,0,0,0,0,0,0,0,0,0,-2077.72,-13483,5374.17,0,0,0,0,0,0,0,0,0,0,0,0,0,0,0,0,0,0,0,0,0,0,0,0
18,12,0,0,0,0,0,0,299.9,198,0,0.00335693,0.00488281,0.00488281,0.00366211,0.00305176,0.00549316,0,0,0,0,0,0,299.9,1012,0,0,0,0,0,0,0,0,0,-3.80E-06,-6.61E-06,-7.10E-06,-6.05E-06,0,0,0,0,0,0,0,0,0,0,0,0,0,0,0,0,0,0,0,0,0,0,0,0,0,-2094.28,-13461.5,5404.13,0,0,0,0,0,0,0,0,0,0,0,0,0,0,0,0,0,0,0,0,0,0,0,0
18,13,0,0,0,0,0,0,299.9,198,0,0.00366211,0.00396729,0.00488281,0.00213623,0.00396729,0.00518799,0,0,0,0,0,0,299.9,1012,0,0,0,0,0,0,0,0,0,-2.33E-06,-5.45E-06,-9.28E-06,-6.79E-06,0,0,0,0,0,0,0,0,0,0,0,0,0,0,0,0,0,0,0,0,0,0,0,0,0,-2110.84,-13440,5434.09,0,0,0,0,0,0,0,0,0,0,0,0,0,0,0,0,0,0,0,0,0,0,0,0
18,14,0,0,0,0,0,0,299.9,198,0,0.00366211,0.00396729,0.00488281,0.00213623,0.00396729,0.00518799,0,0,0,0,0,0,299.9,1012,0,0,0,0,0,0,0,0,0,-1.49E-06,-5.31E-06,-1.05E-05,-7.20E-06,0,0,0,0,0,0,0,0,0,0,0,0,0,0,0,0,0,0,0,0,0,0,0,0,0,-2127.4,-13418.5,5464.05,0,0,0,0,0,0,0,0,0,0,0,0,0,0,0,0,0,0,0,0,0,0,0,0
18,15,0,0,0,0,0,0,299.9,198,0,0.00427246,0.00457764,0.00518799,0.00183105,0.00335693,0.00518799,0,0,0,0,0,0,299.9,1012,0,0,0,0,0,0,0,0,0,-1.57E-06,-4.86E-06,-1.03E-05,-6.58E-06,0,0,0,0,0,0,0,0,0,0,0,0,0,0,0,0,0,0,0,0,0,0,0,0,0,-2143.95,-13397,5494.01,0,0,0,0,0,0,0,0,0,0,0,0,0,0,0,0,0,0,0,0,0,0,0,0
18,16,0,0,0,0,0,0,299.9,198,0,0.00427246,0.00457764,0.00518799,0.00183105,0.00335693,0.00518799,0,0,0,0,0,0,299.9,1012,0,0,0,0,0,0,0,0,0,-1.81E-06,-3.31E-06,-9.74E-06,-5.16E-06,0,0,0,0,0,0,0,0,0,0,0,0,0,0,0,0,0,0,0,0,0,0,0,0,0,-2160.51,-13375.5,5523.97,0,0,0,0,0,0,0,0,0,0,0,0,0,0,0,0,0,0,0,0,0,0,0,0
18,17,0,0,0,0,0,0,299.9,198,0,0.00518799,0.00488281,0.00549316,0.00213623,0.00366211,0.00579834,0,0,0,0,0,0,299.9,1012,0,0,0,0,0,0,0,0,0,-1.86E-06,-2.45E-06,-9.69E-06,-3.82E-06,0,0,0,0,0,0,0,0,0,0,0,0,0,0,0,0,0,0,0,0,0,0,0,0,0,-2177.07,-13354,5553.93,0,0,0,0,0,0,0,0,0,0,0,0,0,0,0,0,0,0,0,0,0,0,0,0
18,18,0,0,0,0,0,0,299.9,198,0,0.00518799,0.00488281,0.00549316,0.00213623,0.00366211,0.00579834,0,0,0,0,0,0,299.9,1012,0,0,0,0,0,0,0,0,0,-2.42E-06,-2.94E-06,-1.03E-05,-3.09E-06,0,0,0,0,0,0,0,0,0,0,0,0,0,0,0,0,0,0,0,0,0,0,0,0,0,-2193.63,-13332.5,5583.89,0,0,0,0,0,0,0,0,0,0,0,0,0,0,0,0,0,0,0,0,0,0,0,0
18,19,0,0,0,0,0,0,299.9,198,0,0.00244141,0.00335693,0.00457764,0,0.00244141,0.00549316,0,0,0,0,0,0,299.9,1012,0,0,0,0,0,0,0,0,0,-3.85E-06,-3.31E-06,-1.10E-05,-3.21E-06,0,0,0,0,0,0,0,0,0,0,0,0,0,0,0,0,0,0,0,0,0,0,0,0,0,-2210.18,-13311,5613.85,0,0,0,0,0,0,0,0,0,0,0,0,0,0,0,0,0,0,0,0,0,0,0,0
19,0,0,0,0,0,0,0,299.9,198,0,0.00244141,0.00335693,0.00457764,0,0.00244141,0.00549316,0,0,0,0,0,0,299.9,1012,0,0,0,0,0,0,0,0,0,-4.93E-06,-2.73E-06,-1.10E-05,-4.82E-06,0,0,0,0,0,0,0,0,0,0,0,0,0,0,0,0,0,0,0,0,0,0,0,0,0,-2226.74,-13289.5,5643.81,0,0,0,0,0,0,0,0,0,0,0,0,0,0,0,0,0,0,0,0,0,0,0,0
19,1,0,0,0,0,0,0,299.9,198,0,0.00396729,0.00244141,0.00610352,-0.000305176,0.00457764,0.00427246,0,0,0,0,0,0,299.9,1012,0,0,0,0,0,0,0,0,0,-4.65E-06,-1.72E-06,-9.80E-06,-7.73E-06,0,0,0,0,0,0,0,0,0,0,0,0,0,0,0,0,0,0,0,0,0,0,0,0,0,-2243.3,-13268,5673.77,0,0,0,0,0,0,0,0,0,0,0,0,0,0,0,0,0,0,0,0,0,0,0,0
19,2,0,0,0,0,0,0,299.9,198,0,0.00396729,0.00244141,0.00610352,-0.000305176,0.00457764,0.00427246,0,0,0,0,0,0,299.9,1012,0,0,0,0,0,0,0,0,0,-3.96E-06,-1.04E-06,-6.82E-06,-1.00E-05,0,0,0,0,0,0,0,0,0,0,0,0,0,0,0,0,0,0,0,0,0,0,0,0,0,-2250.03,-13236.3,5697.52,0,0,0,0,0,0,0,0,0,0,0,0,0,0,0,0,0,0,0,0,0,0,0,0
19,3,0,0,0,0,0,0,299.9,198,0,0.00610352,0.00427246,0.00305176,0.00335693,0,0.00396729,0,0,0,0,0,0,299.9,1012,0,0,0,0,0,0,0,0,0,-4.20E-06,-8.94E-07,5.18E-06,-1.07E-05,0,0,0,0,0,0,0,0,0,0,0,0,0,0,0,0,0,0,0,0,0,0,0,0,0,-2256.75,-13204.6,5721.26,0,0,0,0,0,0,0,0,0,0,0,0,0,0,0,0,0,0,0,0,0,0,0,0
19,4,0,0,0,0,0,0,299.9,198,0,0.00610352,0.00427246,0.00305176,0.00335693,0,0.00396729,0,0,0,0,0,0,299.9,1012,0,0,0,0,0,0,0,0,0,-5.71E-06,-1.13E-06,4.45E-05,-1.12E-05,0,0,0,0,0,0,0,0,0,0,0,0,0,0,0,0,0,0,0,0,0,0,0,0,0,-2263.48,-13172.9,5745.01,0,0,0,0,0,0,0,0,0,0,0,0,0,0,0,0,0,0,0,0,0,0,0,0
19,5,0,0,0,0,0,0,299.9,198,0,0.00366211,0.00152588,0.00152588,0.00335693,0.00183105,0.00579834,0,0,0,0,0,0,299.9,1012,0,0,0,0,0,0,0,0,0,-8.03E-06,-1.86E-06,0.000130905,-1.19E-05,0,0,0,0,0,0,0,0,0,0,0,0,0,0,0,0,0,0,0,0,0,0,0,0,0,-2270.2,-13141.2,5768.76,0,0,0,0,0,0,0,0,0,0,0,0,0,0,0,0,0,0,0,0,0,0,0,0
19,6,0,0,0,0,0,0,299.9,198,0,0.00366211,0.00152588,0.00152588,0.00335693,0.00183105,0.00579834,0,0,0,0,0,0,299.9,1012,0,0,0,0,0,0,0,0,0,-1.04E-05,-3.34E-06,0.000254601,-1.18E-05,0,0,0,0,0,0,0,0,0,0,0,0,0,0,0,0,0,0,0,0,0,0,0,0,0,-2276.93,-13109.5,5792.5,0,0,0,0,0,0,0,0,0,0,0,0,0,0,0,0,0,0,0,0,0,0,0,0
19,7,0,0,0,0,0,0,299.9,198,0,0.00488281,0.00396729,0.00518799,0.00549316,0.00213623,0.00640869,0,0,0,0,0,0,299.9,1012,0,0,0,0,0,0,0,0,0,-1.25E-05,-5.02E-06,0.000348661,-1.08E-05,0,0,0,0,0,0,0,0,0,0,0,0,0,0,0,0,0,0,0,0,0,0,0,0,0,-2283.66,-13077.8,5816.25,0,0,0,0,0,0,0,0,0,0,0,0,0,0,0,0,0,0,0,0,0,0,0,0
19,8,0,0,0,0,0,0,299.9,198,0,0.00488281,0.00396729,0.00518799,0.00549316,0.00213623,0.00640869,0,0,0,0,0,0,299.9,1012,0,0,0,0,0,0,0,0,0,-1.44E-05,-5.99E-06,0.000351789,-1.00E-05,0,0,0,0,0,0,0,0,0,0,0,0,0,0,0,0,0,0,0,0,0,0,0,0,0,-2290.38,-13046.1,5840,0,0,0,0,0,0,0,0,0,0,0,0,0,0,0,0,0,0,0,0,0,0,0,0
19,9,0,0,0,0,0,0,299.9,198,0,0.00396729,0.00457764,0.00396729,0.00274658,0.00366211,0.00549316,0,0,0,0,0,0,299.9,1012,0,0,0,0,0,0,0,0,0,-1.55E-05,-6.09E-06,0.00029597,-1.04E-05,0,0,0,0,0,0,0,0,0,0,0,0,0,0,0,0,0,0,0,0,0,0,0,0,0,-2297.11,-13014.4,5863.74,0,0,0,0,0,0,0,0,0,0,0,0,0,0,0,0,0,0,0,0,0,0,0,0
19,10,0,0,0,0,0,0,299.9,198,0,0.00396729,0.00457764,0.00396729,0.00274658,0.00366211,0.00549316,0,0,0,0,0,0,299.9,1012,0,0,0,0,0,0,0,0,0,-1.56E-05,-5.95E-06,0.000249078,-1.15E-05,0,0,0,0,0,0,0,0,0,0,0,0,0,0,0,0,0,0,0,0,0,0,0,0,0,-2303.84,-12982.7,5887.49,0,0,0,0,0,0,0,0,0,0,0,0,0,0,0,0,0,0,0,0,0,0,0,0
19,11,0,0,0,0,0,0,299.9,198,0,0.00366211,0.00396729,0.00488281,0.00396729,0.00396729,0.00610352,0,0,0,0,0,0,299.9,1012,0,0,0,0,0,0,0,0,0,-1.55E-05,-6.40E-06,0.000220641,-1.16E-05,0,0,0,0,0,0,0,0,0,0,0,0,0,0,0,0,0,0,0,0,0,0,0,0,0,-2310.56,-12951,5911.24,0,0,0,0,0,0,0,0,0,0,0,0,0,0,0,0,0,0,0,0,0,0,0,0
19,12,0,0,0,0,0,0,299.9,198,0,0.00366211,0.00396729,0.00488281,0.00396729,0.00396729,0.00610352,0,0,0,0,0,0,299.9,1012,0,0,0,0,0,0,0,0,0,-1.59E-05,-7.61E-06,0.000190149,-1.02E-05,0,0,0,0,0,0,0,0,0,0,0,0,0,0,0,0,0,0,0,0,0,0,0,0,0,-2317.29,-12919.3,5934.98,0,0,0,0,0,0,0,0,0,0,0,0,0,0,0,0,0,0,0,0,0,0,0,0
19,13,0,0,0,0,0,0,299.9,198,0,0.00396729,0.00396729,0.00640869,0.00305176,0.00274658,0.00793457,0,0,0,0,0,0,299.9,1012,0,0,0,0,0,0,0,0,0,-1.57E-05,-8.97E-06,0.000154922,-8.51E-06,0,0,0,0,0,0,0,0,0,0,0,0,0,0,0,0,0,0,0,0,0,0,0,0,0,-2324.01,-12887.6,5958.73,0,0,0,0,0,0,0,0,0,0,0,0,0,0,0,0,0,0,0,0,0,0,0,0
19,14,0,0,0,0,0,0,299.9,198,0,0.00396729,0.00396729,0.00640869,0.00305176,0.00274658,0.00793457,0,0,0,0,0,0,299.9,1012,0,0,0,0,0,0,0,0,0,-1.50E-05,-1.04E-05,0.000120864,-7.39E-06,0,0,0,0,0,0,0,0,0,0,0,0,0,0,0,0,0,0,0,0,0,0,0,0,0,-2330.74,-12855.9,5982.48,0,0,0,0,0,0,0,0,0,0,0,0,0,0,0,0,0,0,0,0,0,0,0,0
19,15,0,0,0,0,0,0,299.9,198,0,0.00274658,0.00396729,0.00457764,0.00427246,0.00396729,0.00610352,0,0,0,0,0,0,299.9,1012,0,0,0,0,0,0,0,0,0,-1.50E-05,-1.21E-05,8.97E-05,-6.39E-06,0,0,0,0,0,0,0,0,0,0,0,0,0,0,0,0,0,0,0,0,0,0,0,0,0,-2331.8,-12820.6,6006.85,0,0,0,0,0,0,0,0,0,0,0,0,0,0,0,0,0,0,0,0,0,0,0,0
19,16,0,0,0,0,0,0,299.9,198,0,0.00274658,0.00396729,0.00457764,0.00427246,0.00396729,0.00610352,0,0,0,0,0,0,299.9,1012,0,0,0,0,0,0,0,0,0,-1.60E-05,-1.34E-05,6.14E-05,-5.19E-06,0,0,0,0,0,0,0,0,0,0,0,0,0,0,0,0,0,0,0,0,0,0,0,0,0,-2327.19,-12781.8,6031.86,0,0,0,0,0,0,0,0,0,0,0,0,0,0,0,0,0,0,0,0,0,0,0,0
19,17,0,0,0,0,0,0,299.9,198,0,0.00427246,0.00396729,0.00457764,0.00305176,0.00335693,0.00579834,0,0,0,0,0,0,299.9,1012,0,0,0,0,0,0,0,0,0,-1.69E-05,-1.34E-05,3.82E-05,-4.05E-06,0,0,0,0,0,0,0,0,0,0,0,0,0,0,0,0,0,0,0,0,0,0,0,0,0,-2322.58,-12742.9,6056.87,0,0,0,0,0,0,0,0,0,0,0,0,0,0,0,0,0,0,0,0,0,0,0,0
19,18,0,0,0,0,0,0,299.9,198,0,0.00427246,0.00396729,0.00457764,0.00305176,0.00335693,0.00579834,0,0,0,0,0,0,299.9,1012,0,0,0,0,0,0,0,0,0,-1.78E-05,-1.24E-05,2.05E-05,-3.50E-06,0,0,0,0,0,0,0,0,0,0,0,0,0,0,0,0,0,0,0,0,0,0,0,0,0,-2317.97,-12704.1,6081.88,0,0,0,0,0,0,0,0,0,0,0,0,0,0,0,0,0,0,0,0,0,0,0,0
19,19,0,0,0,0,0,0,299.9,198,0,0.00396729,0.00457764,0.00823975,-0.00305176,0.00488281,0.00579834,0,0,0,0,0,0,299.9,1012,0,0,0,0,0,0,0,0,0,-2.00E-05,-1.10E-05,-1.52E-06,-3.83E-06,0,0,0,0,0,0,0,0,0,0,0,0,0,0,0,0,0,0,0,0,0,0,0,0,0,-2313.36,-12665.2,6106.89,0,0,0,0,0,0,0,0,0,0,0,0,0,0,0,0,0,0,0,0,0,0,0,0
20,0,0,0,0,0,0,0,299.9,198,0,0.00396729,0.00457764,0.00823975,-0.00305176,0.00488281,0.00579834,0,0,0,0,0,0,299.9,1012,0,0,0,0,0,0,0,0,0,-2.20E-05,-1.06E-05,-3.11E-05,-4.39E-06,0,0,0,0,0,0,0,0,0,0,0,0,0,0,0,0,0,0,0,0,0,0,0,0,0,-2308.75,-12626.4,6131.9,0,0,0,0,0,0,0,0,0,0,0,0,0,0,0,0,0,0,0,0,0,0,0,0
20,1,0,0,0,0,0,0,299.9,198,0,0.00274658,0.00457764,0.00579834,0.000915527,0.000915527,0.00640869,0,0,0,0,0,0,299.9,1012,0,0,0,0,0,0,0,0,0,-2.14E-05,-1.20E-05,-5.35E-05,-4.40E-06,0,0,0,0,0,0,0,0,0,0,0,0,0,0,0,0,0,0,0,0,0,0,0,0,0,-2304.14,-12587.5,6156.91,0,0,0,0,0,0,0,0,0,0,0,0,0,0,0,0,0,0,0,0,0,0,0,0
20,2,0,0,0,0,0,0,299.9,198,0,0.00274658,0.00457764,0.00579834,0.000915527,0.000915527,0.00640869,0,0,0,0,0,0,299.9,1012,0,0,0,0,0,0,0,0,0,-1.99E-05,-1.33E-05,-6.57E-05,-4.12E-06,0,0,0,0,0,0,0,0,0,0,0,0,0,0,0,0,0,0,0,0,0,0,0,0,0,-2299.53,-12548.7,6181.91,0,0,0,0,0,0,0,0,0,0,0,0,0,0,0,0,0,0,0,0,0,0,0,0
20,3,0,0,0,0,0,0,299.9,198,0,0.00518799,0.00793457,0.00244141,-0.00427246,0.00457764,0.00579834,0,0,0,0,0,0,299.9,1012,0,0,0,0,0,0,0,0,0,-1.92E-05,-1.26E-05,-7.92E-05,-4.28E-06,0,0,0,0,0,0,0,0,0,0,0,0,0,0,0,0,0,0,0,0,0,0,0,0,0,-2294.92,-12509.8,6206.92,0,0,0,0,0,0,0,0,0,0,0,0,0,0,0,0,0,0,0,0,0,0,0,0
20,4,0,0,0,0,0,0,299.9,198,0,0.00518799,0.00793457,0.00244141,-0.00427246,0.00457764,0.00579834,0,0,0,0,0,0,299.9,1012,0,0,0,0,0,0,0,0,0,-1.79E-05,-1.08E-05,-9.41E-05,-5.03E-06,0,0,0,0,0,0,0,0,0,0,0,0,0,0,0,0,0,0,0,0,0,0,0,0,0,-2290.31,-12471,6231.93,0,0,0,0,0,0,0,0,0,0,0,0,0,0,0,0,0,0,0,0,0,0,0,0
20,5,0,0,0,0,0,0,299.9,198,0,0.00427246,0.00579834,0.00305176,0.00549316,0.00457764,0.00549316,0,0,0,0,0,0,299.9,1012,0,0,0,0,0,0,0,0,0,-1.51E-05,-8.88E-06,-0.000104652,-5.60E-06,0,0,0,0,0,0,0,0,0,0,0,0,0,0,0,0,0,0,0,0,0,0,0,0,0,-2285.7,-12432.1,6256.94,0,0,0,0,0,0,0,0,0,0,0,0,0,0,0,0,0,0,0,0,0,0,0,0
20,6,0,0,0,0,0,0,299.9,198,0,0.00427246,0.00579834,0.00305176,0.00549316,0.00457764,0.00549316,0,0,0,0,0,0,299.9,1012,0,0,0,0,0,0,0,0,0,-1.26E-05,-6.60E-06,-0.000112858,-4.98E-06,0,0,0,0,0,0,0,0,0,0,0,0,0,0,0,0,0,0,0,0,0,0,0,0,0,-2281.09,-12393.2,6281.95,0,0,0,0,0,0,0,0,0,0,0,0,0,0,0,0,0,0,0,0,0,0,0,0
20,7,0,0,0,0,0,0,299.9,198,0,0.00366211,0.00457764,0.00427246,0.00427246,0.00305176,0.00518799,0,0,0,0,0,0,299.9,1012,0,0,0,0,0,0,0,0,0,-1.15E-05,-4.40E-06,-0.000121413,-2.81E-06,0,0,0,0,0,0,0,0,0,0,0,0,0,0,0,0,0,0,0,0,0,0,0,0,0,-2276.48,-12354.4,6306.96,0,0,0,0,0,0,0,0,0,0,0,0,0,0,0,0,0,0,0,0,0,0,0,0
20,8,0,0,0,0,0,0,299.9,198,0,0.00366211,0.00457764,0.00427246,0.00427246,0.00305176,0.00518799,0,0,0,0,0,0,299.9,1012,0,0,0,0,0,0,0,0,0,-1.13E-05,-3.02E-06,-0.000128801,-3.94E-07,0,0,0,0,0,0,0,0,0,0,0,0,0,0,0,0,0,0,0,0,0,0,0,0,0,-2271.87,-12315.5,6331.97,0,0,0,0,0,0,0,0,0,0,0,0,0,0,0,0,0,0,0,0,0,0,0,0
20,9,0,0,0,0,0,0,299.9,198,0,0.00488281,0.00427246,0.00488281,0.00274658,0.00427246,0.00549316,0,0,0,0,0,0,299.9,1012,0,0,0,0,0,0,0,0,0,-1.13E-05,-2.17E-06,-0.000133906,-5.49E-07,0,0,0,0,0,0,0,0,0,0,0,0,0,0,0,0,0,0,0,0,0,0,0,0,0,-2252.2,-12275.9,6362.72,0,0,0,0,0,0,0,0,0,0,0,0,0,0,0,0,0,0,0,0,0,0,0,0
20,10,0,0,0,0,0,0,299.9,198,0,0.00488281,0.00427246,0.00488281,0.00274658,0.00427246,0.00549316,0,0,0,0,0,0,299.9,1012,0,0,0,0,0,0,0,0,0,-1.16E-05,-1.65E-06,-0.000137669,-3.59E-06,0,0,0,0,0,0,0,0,0,0,0,0,0,0,0,0,0,0,0,0,0,0,0,0,0,-2232.53,-12236.2,6393.48,0,0,0,0,0,0,0,0,0,0,0,0,0,0,0,0,0,0,0,0,0,0,0,0
20,11,0,0,0,0,0,0,299.9,198,0,0.00335693,0.00396729,0.00488281,0.00396729,0.00213623,0.00579834,0,0,0,0,0,0,299.9,1012,0,0,0,0,0,0,0,0,0,-1.25E-05,-2.09E-06,-0.00014102,-5.93E-06,0,0,0,0,0,0,0,0,0,0,0,0,0,0,0,0,0,0,0,0,0,0,0,0,0,-2212.87,-12196.5,6424.24,0,0,0,0,0,0,0,0,0,0,0,0,0,0,0,0,0,0,0,0,0,0,0,0
20,12,0,0,0,0,0,0,299.9,198,0,0.00335693,0.00396729,0.00488281,0.00396729,0.00213623,0.00579834,0,0,0,0,0,0,299.9,1012,0,0,0,0,0,0,0,0,0,-1.39E-05,-3.53E-06,-0.000144029,-6.06E-06,0,0,0,0,0,0,0,0,0,0,0,0,0,0,0,0,0,0,0,0,0,0,0,0,0,-2193.2,-12156.9,6454.99,0,0,0,0,0,0,0,0,0,0,0,0,0,0,0,0,0,0,0,0,0,0,0,0
20,13,0,0,0,0,0,0,299.9,198,0,0.00305176,0.00396729,0.00457764,0.00305176,0.00335693,0.00549316,0,0,0,0,0,0,299.9,1012,0,0,0,0,0,0,0,0,0,-1.51E-05,-4.99E-06,-0.000146443,-6.22E-06,0,0,0,0,0,0,0,0,0,0,0,0,0,0,0,0,0,0,0,0,0,0,0,0,0,-2173.53,-12117.2,6485.75,0,0,0,0,0,0,0,0,0,0,0,0,0,0,0,0,0,0,0,0,0,0,0,0
20,14,0,0,0,0,0,0,299.9,198,0,0.00305176,0.00396729,0.00457764,0.00305176,0.00335693,0.00549316,0,0,0,0,0,0,299.9,1012,0,0,0,0,0,0,0,0,0,-1.63E-05,-5.93E-06,-0.000147885,-7.29E-06,0,0,0,0,0,0,0,0,0,0,0,0,0,0,0,0,0,0,0,0,0,0,0,0,0,-2153.87,-12077.6,6516.5,0,0,0,0,0,0,0,0,0,0,0,0,0,0,0,0,0,0,0,0,0,0,0,0
20,15,0,0,0,0,0,0,299.9,198,0,0.00305176,0.00396729,0.00427246,0.00213623,0.00305176,0.00579834,0,0,0,0,0,0,299.9,1012,0,0,0,0,0,0,0,0,0,-1.78E-05,-6.42E-06,-0.000147902,-8.30E-06,0,0,0,0,0,0,0,0,0,0,0,0,0,0,0,0,0,0,0,0,0,0,0,0,0,-2134.2,-12037.9,6547.26,0,0,0,0,0,0,0,0,0,0,0,0,0,0,0,0,0,0,0,0,0,0,0,0
20,16,0,0,0,0,0,0,299.9,198,0,0.00305176,0.00396729,0.00427246,0.00213623,0.00305176,0.00579834,0,0,0,0,0,0,299.9,1012,0,0,0,0,0,0,0,0,0,-1.87E-05,-6.02E-06,-0.000146495,-9.47E-06,0,0,0,0,0,0,0,0,0,0,0,0,0,0,0,0,0,0,0,0,0,0,0,0,0,-2114.53,-11998.2,6578.02,0,0,0,0,0,0,0,0,0,0,0,0,0,0,0,0,0,0,0,0,0,0,0,0
