X [s],Quattro sensor 9: EMG.A 9 [V],X [s],Quattro sensor 9: EMG.B 9 [V],X [s],Quattro sensor 9: EMG.C 9 [V],X [s],Quattro sensor 9: EMG.D 9 [V],X [s],Quattro sensor 9: ACC.X 9 [g],X [s],Quattro sensor 9: ACC.Y 9 [g],X [s],Quattro sensor 9: ACC.Z 9 [g],X [s],Quattro sensor 9: GYRO.X 9 [�/,X [s],Quattro sensor 9: GYRO.Y 9 [�/,X [s],Quattro sensor 9: GYRO.Z 9 [�/
0,0,0,0,0,0,0,0,0,0,0,0,0,0,0,0,0,0,0,0
0.001038462,0,0.001038462,0,0.001038462,0,0.001038462,0,0.00675,0,0.00675,0,0.00675,0,0.00675,0,0.00675,0,0.00675,0
0.002076923,0,0.002076923,0,0.002076923,0,0.002076923,0,0.0135,0,0.0135,0,0.0135,0,0.0135,0,0.0135,0,0.0135,0
0.003115385,0,0.003115385,0,0.003115385,0,0.003115385,0,0.02025,0,0.02025,0,0.02025,0,0.02025,0,0.02025,0,0.02025,0
0.004153846,0,0.004153846,0,0.004153846,0,0.004153846,0,0.027,0,0.027,0,0.027,0,0.027,0,0.027,0,0.027,0
0.005192308,0,0.005192308,0,0.005192308,0,0.005192308,0,0.03375,0,0.03375,0,0.03375,0,0.03375,0,0.03375,0,0.03375,0
0.006230769,0,0.006230769,0,0.006230769,0,0.006230769,0,0.0405,0,0.0405,0,0.0405,0,0.0405,0,0.0405,0,0.0405,0
0.007269231,0,0.007269231,0,0.007269231,0,0.007269231,0,0.04725,0,0.04725,0,0.04725,0,0.04725,0,0.04725,0,0.04725,0
0.008307692,0,0.008307692,0,0.008307692,0,0.008307692,0,0.054,0,0.054,0,0.054,0,0.054,0,0.054,0,0.054,0
0.009346154,0,0.009346154,0,0.009346154,0,0.009346154,0,0.06075,0,0.06075,0,0.06075,0,0.06075,0,0.06075,0,0.06075,0
0.010384615,0,0.010384615,0,0.010384615,0,0.010384615,0,0.0675,0,0.0675,0,0.0675,0,0.0675,0,0.0675,0,0.0675,0
0.011423077,0,0.011423077,0,0.011423077,0,0.011423077,0,0.07425,0,0.07425,0,0.07425,0,0.07425,0,0.07425,0,0.07425,0
0.012461538,0,0.012461538,0,0.012461538,0,0.012461538,0,0.081,0,0.081,0,0.081,0,0.081,0,0.081,0,0.081,0
0.0135,0,0.0135,0,0.0135,0,0.0135,0,0.08775,0,0.08775,0,0.08775,0,0.08775,0,0.08775,0,0.08775,0
0.014538462,0,0.014538462,0,0.014538462,0,0.014538462,0,0.0945,0,0.0945,0,0.0945,0,0.0945,0,0.0945,0,0.0945,0
0.015576923,0,0.015576923,0,0.015576923,0,0.015576923,0,0.10125,0,0.10125,0,0.10125,0,0.10125,0,0.10125,0,0.10125,0
0.016615385,0,0.016615385,0,0.016615385,0,0.016615385,0,0.108,0.265625,0.108,-0.921875,0.108,0.28125,0.108,15.63358784,0.108,9.282443047,0.108,1.95419848
0.017653846,0,0.017653846,0,0.017653846,0,0.017653846,0,0.11475,0.25,0.11475,-0.890625,0.11475,0.234375,0.11475,14.65648842,0.11475,10.25954151,0.11475,2.44274807
0.018692308,0,0.018692308,0,0.018692308,0,0.018692308,0,0.1215,0.28125,0.1215,-0.953125,0.1215,0.25,0.1215,15.1450386,0.1215,9.770992279,0.1215,1.95419848
0.019730769,0,0.019730769,0,0.019730769,0,0.019730769,0,0.12825,0.28125,0.12825,-0.921875,0.12825,0.421875,0.12825,17.09923744,0.12825,9.770992279,0.12825,3.41984725
0.020769231,0,0.020769231,0,0.020769231,0,0.020769231,0,0.135,0.1875,0.135,-0.859375,0.135,0.359375,0.135,14.65648842,0.135,10.25954151,0.135,4.39694643
0.021807692,0,0.021807692,0,0.021807692,0,0.021807692,0,0.14175,0.25,0.14175,-0.953125,0.14175,0.15625,0.14175,13.679389,0.14175,9.770992279,0.14175,1.95419848
0.022846154,0,0.022846154,0,0.022846154,0,0.022846154,0,0.1485,0.3125,0.1485,-0.96875,0.1485,0.203125,0.1485,14.16793919,0.1485,9.282443047,0.1485,1.46564889
0.023884615,0,0.023884615,0,0.023884615,0,0.023884615,0,0.15525,0.203125,0.15525,-0.953125,0.15525,0.21875,0.15525,14.16793919,0.15525,9.770992279,0.15525,3.41984725
0.024923077,0,0.024923077,0,0.024923077,0,0.024923077,0,0.162,0.203125,0.162,-0.953125,0.162,0.265625,0.162,14.65648842,0.162,8.79389286,0.162,1.95419848
0.025961538,0,0.025961538,0,0.025961538,0,0.025961538,0,0.16875,0.171875,0.16875,-0.921875,0.16875,0.296875,0.16875,13.679389,0.16875,8.305343628,0.16875,1.46564889
0.027,0,0.027,0,0.027,0,0.027,0,0.1755,0.171875,0.1755,-0.96875,0.1755,0.21875,0.1755,11.72519112,0.1755,7.328244209,0.1755,-0.97709924
0.028038462,0,0.028038462,0,0.028038462,0,0.028038462,0,0.18225,0.21875,0.18225,-0.953125,0.18225,0.234375,0.18225,11.72519112,0.18225,5.862595558,0.18225,-3.41984725
0.029076923,0,0.029076923,0,0.029076923,0,0.029076923,0,0.189,0.1875,0.189,-0.890625,0.189,0.390625,0.189,13.19083977,0.189,4.39694643,0.189,-3.41984725
0.030115385,0,0.030115385,0,0.030115385,0,0.030115385,0,0.19575,0.140625,0.19575,-0.859375,0.19575,0.265625,0.19575,12.70229053,0.19575,3.908396959,0.19575,-3.908396959
0.031153846,0,0.031153846,0,0.031153846,0,0.031153846,0,0.2025,0.25,0.2025,-0.921875,0.2025,0.1875,0.2025,10.7480917,0.2025,2.931297779,0.2025,-7.328244209
0.032192308,0,0.032192308,0,0.032192308,0,0.032192308,0,0.20925,0.3125,0.20925,-0.921875,0.20925,0.21875,0.20925,10.7480917,0.20925,3.41984725,0.20925,-5.862595558
0.033230769,0,0.033230769,0,0.033230769,0,0.033230769,0,0.216,0.265625,0.216,-0.890625,0.216,0.234375,0.216,10.25954151,0.216,3.908396959,0.216,-3.41984725
0.034269231,0,0.034269231,0,0.034269231,0,0.034269231,0,0.22275,0.296875,0.22275,-0.921875,0.22275,0.3125,0.22275,11.23664093,0.22275,3.908396959,0.22275,-3.41984725
0.035307692,0,0.035307692,0,0.035307692,0,0.035307692,0,0.2295,0.265625,0.2295,-0.84375,0.2295,0.34375,0.2295,10.25954151,0.2295,6.351145267,0.2295,-1.95419848
0.036346154,0,0.036346154,0,0.036346154,0,0.036346154,0,0.23625,0.25,0.23625,-0.921875,0.23625,0.1875,0.23625,7.816793919,0.23625,7.328244209,0.23625,-2.44274807
0.037384615,0,0.037384615,0,0.037384615,0,0.037384615,0,0.243,0.328125,0.243,-0.953125,0.243,0.234375,0.243,8.79389286,0.243,7.328244209,0.243,-1.46564889
0.038423077,0,0.038423077,0,0.038423077,0,0.038423077,0,0.24975,0.265625,0.24975,-0.875,0.24975,0.375,0.24975,9.770992279,0.24975,7.816793919,0.24975,0
0.039461538,0,0.039461538,0,0.039461538,0,0.039461538,0,0.2565,0.234375,0.2565,-0.890625,0.2565,0.25,0.2565,8.79389286,0.2565,8.305343628,0.2565,2.44274807
0.0405,0,0.0405,0,0.0405,0,0.0405,0,0.26325,0.28125,0.26325,-0.96875,0.26325,0.1875,0.26325,7.328244209,0.26325,9.282443047,0.26325,-2.44274807
0.041538462,0,0.041538462,0,0.041538462,0,0.041538462,0,0.27,0.25,0.27,-0.921875,0.27,0.25,0.27,7.816793919,0.27,9.282443047,0.27,-0.97709924
0.042576923,0,0.042576923,0,0.042576923,0,0.042576923,0,0.27675,0.25,0.27675,-0.9375,0.27675,0.265625,0.27675,8.305343628,0.27675,8.79389286,0.27675,0.97709924
0.043615385,0,0.043615385,0,0.043615385,0,0.043615385,0,0.2835,0.25,0.2835,-0.921875,0.2835,0.328125,0.2835,9.770992279,0.2835,7.816793919,0.2835,-0.48854962
0.044653846,0,0.044653846,0,0.044653846,0,0.044653846,0,0.29025,0.203125,0.29025,-0.859375,0.29025,0.3125,0.29025,10.25954151,0.29025,8.305343628,0.29025,0
0.045692308,0,0.045692308,0,0.045692308,0,0.045692308,0,0.297,0.21875,0.297,-0.9375,0.297,0.203125,0.297,9.282443047,0.297,9.770992279,0.297,-0.48854962
0.046730769,0,0.046730769,0,0.046730769,0,0.046730769,0,0.30375,0.265625,0.30375,-0.96875,0.30375,0.28125,0.30375,11.23664093,0.30375,8.305343628,0.30375,-2.44274807
0.047769231,0,0.047769231,0,0.047769231,0,0.047769231,0,0.3105,0.265625,0.3105,-0.890625,0.3105,0.3125,0.3105,13.19083977,0.3105,8.305343628,0.3105,1.46564889
0.048807692,0,0.048807692,0,0.048807692,0,0.048807692,0,0.31725,0.234375,0.31725,-0.90625,0.31725,0.234375,0.31725,12.21374035,0.31725,9.770992279,0.31725,0.48854962
0.049846154,0,0.049846154,0,0.049846154,0,0.049846154,0,0.324,0.296875,0.324,-0.96875,0.324,0.203125,0.324,12.21374035,0.324,10.7480917,0.324,0.48854962
0.050884615,0,0.050884615,0,0.050884615,0,0.050884615,0,0.33075,0.3125,0.33075,-0.953125,0.33075,0.234375,0.33075,13.19083977,0.33075,11.72519112,0.33075,3.41984725
0.051923077,0,0.051923077,0,0.051923077,0,0.051923077,0,0.3375,0.3125,0.3375,-0.984375,0.3375,0.25,0.3375,14.16793919,0.3375,13.679389,0.3375,4.39694643
0.052961538,0,0.052961538,0,0.052961538,0,0.052961538,0,0.34425,0.28125,0.34425,-0.953125,0.34425,0.390625,0.34425,16.12213707,0.34425,14.16793919,0.34425,6.351145267
0.054,0,0.054,0,0.054,0,0.054,0,0.351,0.203125,0.351,-0.890625,0.351,0.34375,0.351,15.1450386,0.351,15.63358784,0.351,3.908396959
0.055038462,0,0.055038462,0,0.055038462,0,0.055038462,0,0.35775,0.21875,0.35775,-0.96875,0.35775,0.1875,0.35775,14.16793919,0.35775,16.12213707,0.35775,3.41984725
0.056076923,0,0.056076923,0,0.056076923,0,0.056076923,0,0.3645,0.25,0.3645,-0.984375,0.3645,0.34375,0.3645,16.61068726,0.3645,15.1450386,0.3645,3.908396959
0.057115385,0,0.057115385,0,0.057115385,0,0.057115385,0,0.37125,0.203125,0.37125,-0.90625,0.37125,0.359375,0.37125,19.05343437,0.37125,14.65648842,0.37125,7.328244209
0.058153846,0,0.058153846,0,0.058153846,0,0.058153846,0,0.378,0.21875,0.378,-1,0.378,0.234375,0.378,17.09923744,0.378,15.1450386,0.378,3.41984725
0.059192308,0,0.059192308,0,0.059192308,0,0.059192308,0,0.38475,0.265625,0.38475,-1.03125,0.38475,0.203125,0.38475,17.58778572,0.38475,14.16793919,0.38475,3.908396959
0.060230769,0,0.060230769,0,0.060230769,0,0.060230769,0,0.3915,0.28125,0.3915,-1,0.3915,0.25,0.3915,19.54198456,0.3915,12.70229053,0.3915,6.351145267
0.061269231,0,0.061269231,0,0.061269231,0,0.061269231,0,0.39825,0.265625,0.39825,-1.03125,0.39825,0.328125,0.39825,19.54198456,0.39825,13.19083977,0.39825,7.816793919
0.062307692,0,0.062307692,0,0.062307692,0,0.062307692,0,0.405,0.1875,0.405,-0.96875,0.405,0.390625,0.405,20.51908302,0.405,12.70229053,0.405,7.328244209
0.063346154,0,0.063346154,0,0.063346154,0,0.063346154,0,0.41175,0.140625,0.41175,-0.953125,0.41175,0.234375,0.41175,19.05343437,0.41175,11.23664093,0.41175,8.305343628
0.064384615,0,0.064384615,0,0.064384615,0,0.064384615,0,0.4185,0.1875,0.4185,-1.03125,0.4185,0.21875,0.4185,19.54198456,0.4185,8.305343628,0.4185,6.8396945
0.065423077,0,0.065423077,0,0.065423077,0,0.065423077,0,0.42525,0.21875,0.42525,-1.015625,0.42525,0.390625,0.42525,22.96183205,0.42525,7.328244209,0.42525,8.79389286
0.066461538,0,0.066461538,0,0.066461538,0,0.066461538,0,0.432,0.1875,0.432,-0.953125,0.432,0.390625,0.432,21.4961834,0.432,5.862595558,0.432,9.282443047
0.0675,0,0.0675,0,0.0675,0,0.0675,0,0.43875,0.234375,0.43875,-1.046875,0.43875,0.25,0.43875,20.51908302,0.43875,4.88549614,0.43875,7.816793919
0.068538462,0,0.068538462,0,0.068538462,0,0.068538462,0,0.4455,0.328125,0.4455,-1.109375,0.4455,0.3125,0.4455,24.91603088,0.4455,7.816793919,0.4455,12.21374035
0.069576923,0,0.069576923,0,0.069576923,0,0.069576923,0,0.45225,0.390625,0.45225,-1.03125,0.45225,0.34375,0.45225,27.84732819,0.45225,13.19083977,0.45225,17.09923744
0.070615385,0,0.070615385,0,0.070615385,0,0.070615385,0,0.459,0.390625,0.459,-1.171875,0.459,0.34375,0.459,35.17557144,0.459,21.00763321,0.459,21.4961834
0.071653846,0,0.071653846,0,0.071653846,0,0.071653846,0,0.46575,0.109375,0.46575,-1.1875,0.46575,0.40625,0.46575,41.52671814,0.46575,21.4961834,0.46575,21.4961834
0.072692308,0,0.072692308,0,0.072692308,0,0.072692308,0,0.4725,0.078125,0.4725,-1.21875,0.4725,0.5625,0.4725,51.7862587,0.4725,13.679389,0.4725,21.4961834
0.073730769,0,0.073730769,0,0.073730769,0,0.073730769,0,0.47925,0.453125,0.47925,-1.546875,0.47925,0.578125,0.47925,62.53435135,0.47925,6.351145267,0.47925,19.54198456
0.074769231,0,0.074769231,0,0.074769231,0,0.074769231,0,0.486,0.890625,0.486,-1.25,0.486,0.15625,0.486,78.65648651,0.486,8.305343628,0.486,18.07633591
0.075807692,0,0.075807692,0,0.075807692,0,0.075807692,0,0.49275,0.6875,0.49275,-1.265625,0.49275,0.203125,0.49275,79.14503479,0.49275,23.45038223,0.49275,4.39694643
0.076846154,0,0.076846154,0,0.076846154,0,0.076846154,0,0.4995,0.453125,0.4995,-1.578125,0.4995,0.25,0.4995,77.67938995,0.4995,31.75572586,0.4995,0.97709924
0.077884615,0,0.077884615,0,0.077884615,0,0.077884615,0,0.50625,0.5625,0.50625,-1.59375,0.50625,0.296875,0.50625,91.35877991,0.50625,32.24427414,0.50625,-3.908396959
0.078923077,0,0.078923077,0,0.078923077,0,0.078923077,0,0.513,0.5625,0.513,-1.578125,0.513,0.515625,0.513,99.66412354,0.513,42.01526642,0.513,-8.305343628
0.079961538,0,0.079961538,0,0.079961538,0,0.079961538,0,0.51975,0.46875,0.51975,-1.875,0.51975,0.796875,0.51975,107.9694672,0.51975,52.76335907,0.51975,-10.7480917
0.081,0,0.081,0,0.081,0,0.081,0,0.5265,0.484375,0.5265,-2.015625,0.5265,0.859375,0.5265,129.4656525,0.5265,56.18320465,0.5265,-18.56488609
0.082038462,0,0.082038462,0,0.082038462,0,0.082038462,0,0.53325,0.53125,0.53325,-2.015625,0.53325,0.640625,0.53325,150.4732819,0.53325,61.0687027,0.53325,-25.89312935
0.083076923,0,0.083076923,0,0.083076923,0,0.083076923,0,0.54,0.59375,0.54,-2,0.54,0.390625,0.54,160.7328186,0.54,68.88549805,0.54,-29.31297684
0.084115385,0,0.084115385,0,0.084115385,0,0.084115385,0,0.54675,0.671875,0.54675,-2.25,0.54675,0.40625,0.54675,177.8320618,0.54675,85.00763702,0.54675,-38.10686874
0.085153846,0,0.085153846,0,0.085153846,0,0.085153846,0,0.5535,0.484375,0.5535,-2.28125,0.5535,0.21875,0.5535,199.8167877,0.5535,90.38167572,0.5535,-43.48091507
0.086192308,0,0.086192308,0,0.086192308,0,0.086192308,0,0.56025,0.53125,0.56025,-2.140625,0.56025,0.078125,0.56025,212.5190887,0.56025,95.26717377,0.56025,-46.41221237
0.087230769,0,0.087230769,0,0.087230769,0,0.087230769,0,0.567,0.703125,0.567,-2.234375,0.567,0.21875,0.567,226.687027,0.567,111.3893127,0.567,-58.1374054
0.088269231,0,0.088269231,0,0.088269231,0,0.088269231,0,0.57375,0.671875,0.57375,-2.28125,0.57375,0.21875,0.57375,239.3893127,0.57375,121.1603088,0.57375,-66.44274902
0.089307692,0,0.089307692,0,0.089307692,0,0.089307692,0,0.5805,0.609375,0.5805,-2.09375,0.5805,0.0625,0.5805,249.6488495,0.5805,139.2366486,0.5805,-70.35114288
0.090346154,0,0.090346154,0,0.090346154,0,0.090346154,0,0.58725,0.515625,0.58725,-2.046875,0.58725,-0.109375,0.58725,249.6488495,0.58725,154.3816833,0.58725,-62.04580307
0.091384615,0,0.091384615,0,0.091384615,0,0.091384615,0,0.594,0.3125,0.594,-1.890625,0.594,-0.28125,0.594,249.6488495,0.594,168.5496216,0.594,-49.34350967
0.092423077,0,0.092423077,0,0.092423077,0,0.092423077,0,0.60075,0.203125,0.60075,-1.765625,0.60075,-0.28125,0.60075,249.6488495,0.60075,173.4351196,0.60075,-28.82442665
0.093461538,0,0.093461538,0,0.093461538,0,0.093461538,0,0.6075,0.140625,0.6075,-1.65625,0.6075,0.015625,0.6075,249.6488495,0.6075,169.0381622,0.6075,0.97709924
0.0945,0,0.0945,0,0.0945,0,0.0945,0,0.61425,0.109375,0.61425,-1.515625,0.61425,0.3125,0.61425,249.6488495,0.61425,158.2900696,0.61425,24.4274807
0.095538462,0,0.095538462,0,0.095538462,0,0.095538462,0,0.621,-0.078125,0.621,-1.046875,0.621,0.359375,0.621,249.6488495,0.621,128.4885559,0.621,51.7862587
0.096576923,0,0.096576923,0,0.096576923,0,0.096576923,0,0.62775,0.03125,0.62775,-0.78125,0.62775,0.109375,0.62775,249.6488495,0.62775,77.67938995,0.62775,79.6335907
0.097615385,0,0.097615385,0,0.097615385,0,0.097615385,0,0.6345,0.390625,0.6345,-0.734375,0.6345,-0.140625,0.6345,249.6488495,0.6345,21.4961834,0.6345,93.80152893
0.098653846,0,0.098653846,0,0.098653846,0,0.098653846,0,0.64125,1.578125,0.64125,-0.53125,0.64125,-0.640625,0.64125,222.2900696,0.64125,9.282443047,0.64125,60.58015442
0.099692308,0,0.099692308,0,0.099692308,0,0.099692308,0,0.648,2.109375,0.648,-0.015625,0.648,-0.984375,0.648,165.129776,0.648,64.48854828,0.648,19.54198456
0.100730769,0,0.100730769,0,0.100730769,0,0.100730769,0,0.65475,1.71875,0.65475,-0.109375,0.65475,-1.0625,0.65475,109.435112,0.65475,118.7175598,0.65475,-4.39694643
0.101769231,0,0.101769231,0,0.101769231,0,0.101769231,0,0.6615,1.03125,0.6615,-0.34375,0.6615,-1.015625,0.6615,78.16793823,0.6615,129.4656525,0.6615,-14.16793919
0.102807692,0,0.102807692,0,0.102807692,0,0.102807692,0,0.66825,0.796875,0.66825,-0.203125,0.66825,-1.015625,0.66825,49.34350967,0.66825,128.9770966,0.66825,-11.23664093
0.103846154,0,0.103846154,0,0.103846154,0,0.103846154,0,0.675,0.71875,0.675,-0.140625,0.675,-0.96875,0.675,33.70992279,0.675,131.9084015,0.675,-9.770992279
0.104884615,0,0.104884615,0,0.104884615,0,0.104884615,0,0.68175,0.359375,0.68175,-0.234375,0.68175,-0.859375,0.68175,4.88549614,0.68175,144.6106873,0.68175,-9.770992279
0.105923077,0,0.105923077,0,0.105923077,0,0.105923077,0,0.6885,0,0.6885,-0.328125,0.6885,-0.75,0.6885,-14.65648842,0.6885,138.7480927,0.6885,-4.39694643
0.106961538,0,0.106961538,0,0.106961538,0,0.106961538,0,0.69525,0.015625,0.69525,-0.359375,0.69525,-0.671875,0.69525,-24.91603088,0.69525,113.8320618,0.69525,7.328244209
0.108,-0.000475853,0.108,0.000168185,0.108,0.000123369,0.108,-0.000335698,0.702,0.09375,0.702,-0.34375,0.702,-0.640625,0.702,-32.73282623,0.702,94.29007721,0.702,12.70229053
0.109038462,-0.000412909,0.109038462,0.000186984,0.109038462,9.15E-05,0.109038462,-0.000246235,0.70875,0.0625,0.70875,-0.3125,0.70875,-0.625,0.70875,-42.01526642,0.70875,79.14503479,0.70875,6.8396945
0.110076923,-0.000374136,0.110076923,0.000178759,0.110076923,6.09E-05,0.110076923,-0.000212665,0.7155,-0.015625,0.7155,-0.296875,0.7155,-0.609375,0.7155,-52.27481079,0.7155,61.55725098,0.7155,-4.39694643
0.111115385,-0.000292561,0.111115385,0.000229114,0.111115385,5.29E-05,0.111115385,-0.000271748,0.72225,-0.0625,0.72225,-0.28125,0.72225,-0.609375,0.72225,-62.53435135,0.72225,40.06106949,0.72225,-12.21374035
0.112153846,-0.000231128,0.112153846,0.000187488,0.112153846,4.55E-05,0.112153846,-0.000299947,0.729,-0.09375,0.729,-0.25,0.729,-0.609375,0.729,-72.79389191,0.729,18.56488609,0.729,-16.12213707
0.113192308,-0.000192859,0.113192308,-1.11E-05,0.113192308,3.16E-05,0.113192308,-0.000212665,0.73575,-0.09375,0.73575,-0.25,0.73575,-0.609375,0.73575,-84.51908112,0.73575,-3.41984725,0.73575,-19.05343437
0.114230769,-9.35E-05,0.114230769,4.67E-05,0.114230769,1.86E-05,0.114230769,-0.000228443,0.7425,-0.078125,0.7425,-0.25,0.7425,-0.609375,0.7425,-97.22137451,0.7425,-24.91603088,0.7425,-23.45038223
0.115269231,-2.06E-05,0.115269231,0.000149218,0.115269231,1.06E-05,0.115269231,-0.00019588,0.74925,-0.015625,0.74925,-0.265625,0.74925,-0.609375,0.74925,-109.435112,0.74925,-43.96946716,0.74925,-29.80152702
0.116307692,3.74E-05,0.116307692,0.000105745,0.116307692,6.55E-06,0.116307692,-3.37E-05,0.756,0.015625,0.756,-0.28125,0.756,-0.59375,0.756,-121.6488571,0.756,-60.58015442,0.756,-36.15267181
0.117346154,0.000115312,0.117346154,9.42E-05,0.117346154,-9.57E-06,0.117346154,3.31E-05,0.76275,0.0625,0.76275,-0.3125,0.76275,-0.578125,0.76275,-133.8625946,0.76275,-75.23664093,0.76275,-40.06106949
0.118384615,0.000150896,0.118384615,5.86E-05,0.118384615,-3.58E-05,0.118384615,-5.29E-05,0.7695,0.15625,0.7695,-0.34375,0.7695,-0.5625,0.7695,-146.0763397,0.7695,-85.00763702,0.7695,-42.01526642
0.119423077,0.000143175,0.119423077,-9.90E-06,0.119423077,-6.80E-05,0.119423077,-0.000146532,0.77625,0.234375,0.77625,-0.390625,0.77625,-0.53125,0.77625,-157.8015289,0.77625,-89.89312744,0.77625,-43.96946716
0.120461538,0.000107256,0.120461538,-6.66E-05,0.120461538,-9.55E-05,0.120461538,-9.84E-05,0.783,0.328125,0.783,-0.421875,0.783,-0.5,0.783,-163.6641235,0.783,-90.87023163,0.783,-45.43511581
0.1215,0.000101213,0.1215,-3.52E-05,0.1215,-0.000115312,0.1215,7.03E-05,0.78975,0.390625,0.78975,-0.4375,0.78975,-0.46875,0.78975,-176.3664093,0.78975,-89.89312744,0.78975,-49.34350967
0.122538462,9.21E-05,0.122538462,-6.88E-06,0.122538462,-0.000118334,0.122538462,1.09E-05,0.7965,0.4375,0.7965,-0.484375,0.7965,-0.4375,0.7965,-189.557251,0.7965,-85.98473358,0.7965,-53.25190735
0.123576923,8.21E-05,0.123576923,-4.85E-05,0.123576923,-0.000129244,0.123576923,-0.000123369,0.80325,0.46875,0.80325,-0.546875,0.80325,-0.421875,0.80325,-203.2366486,0.80325,-80.12213898,0.80325,-57.16030502
0.124615385,8.91E-05,0.124615385,-3.32E-05,0.124615385,-0.000104906,0.124615385,-8.61E-05,0.81,0.515625,0.81,-0.65625,0.81,-0.390625,0.81,-216.9160309,0.81,-73.28244019,0.81,-60.09160233
0.125653846,0.000107927,0.125653846,1.63E-05,0.125653846,-5.82E-05,0.125653846,-8.07E-05,0.81675,0.515625,0.81675,-0.75,0.81675,-0.34375,0.81675,-230.1068726,0.81675,-64,0.81675,-63.51145172
0.126692308,0.000129412,0.126692308,8.21E-05,0.126692308,-3.47E-05,0.126692308,-0.000109102,0.8235,0.46875,0.8235,-0.859375,0.8235,-0.28125,0.8235,-242.3206177,0.8235,-54.22900772,0.8235,-67.90839386
0.127730769,0.000127062,0.127730769,0.000119341,0.127730769,-4.11E-05,0.127730769,-5.19E-05,0.83025,0.40625,0.83025,-0.96875,0.83025,-0.21875,0.83025,-250.1374054,0.83025,-47.38931274,0.83025,-72.79389191
0.128769231,0.000101213,0.128769231,6.28E-05,0.128769231,-4.28E-05,0.128769231,-6.88E-06,0.837,0.3125,0.837,-1.09375,0.837,-0.15625,0.837,-250.1374054,0.837,-42.99236679,0.837,-76.21373749
0.129807692,0.000117662,0.129807692,-6.33E-05,0.129807692,-3.73E-05,0.129807692,7.44E-05,0.84375,0.234375,0.84375,-1.140625,0.84375,-0.109375,0.84375,-250.1374054,0.84375,-42.50381851,0.84375,-78.16793823
0.130846154,0.000124041,0.130846154,-0.000129412,0.130846154,-3.11E-05,0.130846154,0.000142504,0.8505,0.125,0.8505,-1.25,0.8505,-0.046875,0.8505,-250.1374054,0.8505,-48.36641312,0.8505,-77.19084167
0.131884615,0.000123873,0.131884615,-6.01E-05,0.131884615,-1.70E-05,0.131884615,2.60E-05,0.85725,0.09375,0.85725,-1.34375,0.85725,0,0.85725,-250.1374054,0.85725,-57.16030502,0.85725,-74.74809265
0.132923077,0.000144518,0.132923077,-4.53E-06,0.132923077,8.39E-07,0.132923077,-6.23E-05,0.864,0.109375,0.864,-1.453125,0.864,0.0625,0.864,-250.1374054,0.864,-64,0.864,-76.21373749
0.133961538,0.000168353,0.133961538,3.44E-05,0.133961538,7.39E-06,0.133961538,-9.42E-05,0.87075,0.0625,0.87075,-1.5625,0.87075,0.125,0.87075,-250.1374054,0.87075,-74.74809265,0.87075,-78.65648651
0.135,0.000155596,0.135,3.27E-05,0.135,-4.53E-06,0.135,-2.35E-06,0.8775,0.03125,0.8775,-1.671875,0.8775,0.1875,0.8775,-250.1374054,0.8775,-87.45037842,0.8775,-79.6335907
0.136038462,0.000133776,0.136038462,8.90E-06,0.136038462,-1.96E-05,0.136038462,9.15E-05,0.88425,0.046875,0.88425,-1.796875,0.88425,0.25,0.88425,-250.1374054,0.88425,-100.6412201,0.88425,-78.65648651
0.137076923,0.00012874,0.137076923,5.04E-06,0.137076923,-2.50E-05,0.137076923,0.000135454,0.891,0.0625,0.891,-1.921875,0.891,0.328125,0.891,-250.1374054,0.891,-106.992363,0.891,-77.67938995
0.138115385,0.000109606,0.138115385,1.63E-05,0.138115385,-3.24E-05,0.138115385,0.000158953,0.89775,0.109375,0.89775,-2.015625,0.89775,0.4375,0.89775,-250.1374054,0.89775,-121.6488571,0.89775,-74.74809265
0.139153846,7.15E-05,0.139153846,1.02E-05,0.139153846,-3.91E-05,0.139153846,4.58E-05,0.9045,0.21875,0.9045,-2.078125,0.9045,0.578125,0.9045,-250.1374054,0.9045,-136.3053436,0.9045,-70.83969116
0.140192308,2.70E-05,0.140192308,-2.84E-05,0.140192308,-5.99E-05,0.140192308,0.000144854,0.91125,0.328125,0.91125,-2.09375,0.91125,0.71875,0.91125,-250.1374054,0.91125,-148.5190887,0.91125,-66.9312973
0.141230769,1.12E-05,0.141230769,-4.46E-05,0.141230769,-9.18E-05,0.141230769,-0.000151568,0.918,0.453125,0.918,-2.09375,0.918,0.90625,0.918,-250.1374054,0.918,-157.312973,0.918,-63.51145172
0.142269231,9.57E-06,0.142269231,-2.17E-05,0.142269231,-0.000114305,0.142269231,0.000147539,0.92475,0.703125,0.92475,-2,0.92475,1.015625,0.92475,-250.1374054,0.92475,-163.1755676,0.92475,-62.53435135
0.143307692,2.38E-05,0.143307692,-1.70E-05,0.143307692,-0.000115312,0.143307692,-5.93E-05,0.9315,0.484375,0.9315,-2.1875,0.9315,1.328125,0.9315,-250.1374054,0.9315,-136.3053436,0.9315,-76.7022934
0.144346154,2.53E-05,0.144346154,-8.22E-06,0.144346154,-0.000104402,0.144346154,-0.000135454,0.93825,0.203125,0.93825,-2.390625,0.93825,1.65625,0.93825,-240.8549652,0.93825,-132.885498,0.93825,-75.72518921
0.145384615,3.99E-05,0.145384615,-3.52E-06,0.145384615,-9.75E-05,0.145384615,-4.58E-05,0.945,0.265625,0.945,-2.25,0.945,1.828125,0.945,-213.4961853,0.945,-135.3282471,0.945,-59.11450195
0.146423077,5.46E-05,0.146423077,1.49E-05,0.146423077,-9.74E-05,0.146423077,-0.000132433,0.95175,0.25,0.95175,-2.078125,0.95175,1.921875,0.95175,-196.3969421,0.95175,-126.5343475,0.95175,-31.75572586
0.147461538,4.35E-05,0.147461538,1.63E-05,0.147461538,-0.000102892,0.147461538,4.15E-05,0.9585,0.21875,0.9585,-1.828125,0.9585,2.109375,0.9585,-181.2519073,0.9585,-115.7862625,0.9585,-12.70229053
0.1485,5.66E-05,0.1485,-2.50E-05,0.1485,-0.00014049,0.1485,5.39E-05,0.96525,0.15625,0.96525,-1.71875,0.96525,2.328125,0.96525,-160.7328186,0.96525,-113.3435135,0.96525,-11.23664093
0.149538462,0.000113802,0.149538462,-8.64E-05,0.149538462,-0.000184802,0.149538462,-1.33E-05,0.972,0.03125,0.972,-1.625,0.972,2.453125,0.972,-134.8396912,0.972,-115.2977066,0.972,-6.351145267
0.150576923,6.83E-05,0.150576923,-6.90E-05,0.150576923,-0.000128405,0.150576923,7.55E-06,0.97875,-0.03125,0.97875,-1.546875,0.97875,2.5625,0.97875,-105.0381699,0.97875,-116.2748108,0.97875,1.95419848
0.151615385,2.77E-05,0.151615385,-3.46E-05,0.151615385,-9.63E-05,0.151615385,1.01E-05,0.9855,-0.046875,0.9855,-1.359375,0.9855,2.59375,0.9855,-75.23664093,0.9855,-113.3435135,0.9855,5.374045849
0.152653846,-1.17E-06,0.152653846,-5.40E-05,0.152653846,-8.54E-05,0.152653846,-3.74E-05,0.99225,-0.046875,0.99225,-1.109375,0.99225,2.578125,0.99225,-47.38931274,0.99225,-110.4122162,0.99225,4.39694643
0.153692308,-1.17E-06,0.153692308,-6.75E-05,0.153692308,-7.74E-05,0.153692308,-1.17E-06,0.999,0,0.999,-0.875,0.999,2.703125,0.999,-35.17557144,0.999,-106.0152664,0.999,1.95419848
0.154730769,2.60E-05,0.154730769,-4.01E-05,0.154730769,-7.80E-05,0.154730769,3.52E-06,1.00575,0.09375,1.00575,-0.78125,1.00575,2.859375,1.00575,-9.282443047,1.00575,-96.73282623,1.00575,1.46564889
0.155769231,4.55E-05,0.155769231,-2.80E-05,0.155769231,-6.78E-05,0.155769231,-1.83E-05,1.0125,0.296875,1.0125,-0.71875,1.0125,2.890625,1.0125,19.54198456,1.0125,-80.61068726,1.0125,5.862595558
0.156807692,1.83E-05,0.156807692,-2.48E-05,0.156807692,-6.63E-05,0.156807692,-4.25E-05,1.01925,0.359375,1.01925,-0.734375,1.01925,2.8125,1.01925,48.36641312,1.01925,-52.76335907,1.01925,5.862595558
0.157846154,3.19E-06,0.157846154,-4.25E-05,0.157846154,-7.87E-05,0.157846154,-1.04E-05,1.026,-0.3125,1.026,-1.109375,1.026,2.75,1.026,78.65648651,1.026,-21.98473358,1.026,-0.48854962
0.158884615,-1.06E-05,0.158884615,-8.07E-05,0.158884615,-9.01E-05,0.158884615,7.77E-05,1.03275,-0.21875,1.03275,-1.328125,1.03275,2.578125,1.03275,132.885498,1.03275,-11.72519112,1.03275,69.8625946
0.159923077,-3.24E-05,0.159923077,-9.75E-05,0.159923077,-9.60E-05,0.159923077,3.31E-05,1.0395,-0.15625,1.0395,-0.671875,1.0395,2.03125,1.0395,178.3206177,1.0395,-4.88549614,1.0395,44.45801544
0.160961538,-2.70E-05,0.160961538,-2.05E-05,0.160961538,-9.48E-05,0.160961538,1.83E-05,1.04625,-0.171875,1.04625,-0.9375,1.04625,1.6875,1.04625,212.5190887,1.04625,38.10686874,1.04625,42.99236679
0.162,-7.22E-06,0.162,8.95E-05,0.162,-8.64E-05,0.162,1.53E-05,1.053,0.671875,1.053,-3.0625,1.053,0.546875,1.053,241.3435059,1.053,63.02289963,1.053,38.10686874
0.163038462,-3.19E-06,0.163038462,5.39E-05,0.163038462,-7.87E-05,0.163038462,1.12E-05,1.05975,1.390625,1.05975,-3.1875,1.05975,-0.46875,1.05975,249.6488495,1.05975,53.74045944,1.05975,-0.97709924
0.164076923,9.23E-06,0.164076923,-5.56E-05,0.164076923,-5.25E-05,0.164076923,2.84E-05,1.0665,1.25,1.0665,-1.921875,1.0665,-1.5,1.0665,228.6412201,1.0665,84.51908112,1.0665,34.19847488
0.165115385,3.39E-05,0.165115385,-0.000153582,0.165115385,-2.87E-05,0.165115385,2.58E-05,1.07325,0.125,1.07325,-2.109375,1.07325,-1.34375,1.07325,229.6183167,1.07325,75.72518921,1.07325,16.12213707
0.166153846,3.71E-05,0.166153846,-0.000156603,0.166153846,-1.63E-05,0.166153846,-2.30E-05,1.08,0.15625,1.08,-1.328125,1.08,-1.09375,1.08,218.3816833,1.08,44.94656372,1.08,-8.79389286
0.167192308,2.25E-05,0.167192308,-7.07E-05,0.167192308,-3.36E-06,0.167192308,-2.62E-05,1.08675,0,1.08675,-0.578125,1.08675,-0.390625,1.08675,181.2519073,1.08675,35.66412354,1.08675,-21.98473358
0.168230769,5.04E-06,0.168230769,5.04E-07,0.168230769,4.03E-06,0.168230769,2.06E-05,1.0935,-0.203125,1.0935,-0.578125,1.0935,0.53125,1.0935,165.129776,1.0935,39.5725174,1.0935,-22.96183205
0.169269231,5.04E-07,0.169269231,8.56E-06,0.169269231,1.26E-05,0.169269231,-9.06E-06,1.10025,-0.25,1.10025,-0.125,1.10025,1.296875,1.10025,141.6793823,1.10025,28.33587837,1.10025,-0.48854962
0.170307692,-2.13E-05,0.170307692,-7.60E-05,0.170307692,2.13E-05,0.170307692,-4.52E-05,1.107,0.328125,1.107,0.15625,1.107,1.40625,1.107,123.114502,1.107,24.4274807,1.107,9.282443047
0.171346154,-1.12E-05,0.171346154,-7.89E-05,0.171346154,3.21E-05,0.171346154,1.04E-05,1.11375,0.15625,1.11375,-0.390625,1.11375,0.609375,1.11375,63.51145172,1.11375,21.4961834,1.11375,37.12977219
0.172384615,-2.17E-05,0.172384615,-7.27E-05,0.172384615,4.15E-05,0.172384615,-3.19E-06,1.1205,0.265625,1.1205,-1.375,1.1205,0.109375,1.1205,34.19847488,1.1205,2.44274807,1.1205,37.12977219
0.173423077,-2.90E-05,0.173423077,-7.67E-05,0.173423077,3.42E-05,0.173423077,-7.72E-06,1.12725,0.5625,1.12725,-1.078125,1.12725,0.046875,1.12725,57.16030502,1.12725,-15.63358784,1.12725,33.22137451
0.174461538,-3.94E-05,0.174461538,-5.86E-05,0.174461538,2.58E-05,0.174461538,0.000185809,1.134,0.65625,1.134,-0.796875,1.134,0.109375,1.134,74.25954437,1.134,-9.770992279,1.134,42.99236679
0.1755,-3.84E-05,0.1755,-5.87E-06,0.1755,3.24E-05,0.1755,-6.88E-06,1.14075,0.296875,1.14075,-0.765625,1.14075,0.265625,1.14075,67.41984558,1.14075,2.44274807,1.14075,50.80916214
0.176538462,-2.87E-05,0.176538462,3.51E-05,0.176538462,3.88E-05,0.176538462,-0.000171542,1.1475,0.03125,1.1475,-0.625,1.1475,0.421875,1.1475,55.20610809,1.1475,10.25954151,1.1475,38.10686874
0.177576923,-1.23E-05,0.177576923,-1.56E-05,0.177576923,3.64E-05,0.177576923,2.58E-05,1.15425,0,1.15425,-0.640625,1.15425,0.28125,1.15425,40.54961777,1.15425,16.61068726,1.15425,19.54198456
0.178615385,9.23E-06,0.178615385,-2.50E-05,0.178615385,3.31E-05,0.178615385,-3.78E-05,1.161,0.234375,1.161,-1.03125,1.161,0.15625,1.161,25.40458107,1.161,12.21374035,1.161,10.7480917
0.179653846,2.40E-05,0.179653846,1.36E-05,0.179653846,2.20E-05,0.179653846,4.88E-05,1.16775,0.359375,1.16775,-0.9375,1.16775,0.140625,1.16775,18.56488609,1.16775,7.328244209,1.16775,4.88549614
0.180692308,1.29E-05,0.180692308,1.96E-05,0.180692308,1.86E-05,0.180692308,7.08E-05,1.1745,0.328125,1.1745,-0.875,1.1745,0.140625,1.1745,5.862595558,1.1745,13.19083977,1.1745,9.282443047
0.181730769,-6.88E-06,0.181730769,2.33E-05,0.181730769,1.43E-05,0.181730769,6.60E-05,1.18125,0.15625,1.18125,-1.03125,1.18125,0.265625,1.18125,3.41984725,1.18125,12.21374035,1.18125,0
0.182769231,-1.44E-05,0.182769231,2.72E-05,0.182769231,1.59E-05,0.182769231,7.91E-05,1.188,0.109375,1.188,-0.859375,1.188,0.203125,1.188,-2.931297779,1.188,12.21374035,1.188,-7.328244209
0.183807692,-2.84E-05,0.183807692,3.47E-05,0.183807692,2.17E-05,0.183807692,-0.00013344,1.19475,0.21875,1.19475,-0.9375,1.19475,0.171875,1.19475,0.48854962,1.19475,10.25954151,1.19475,-13.679389
0.184846154,-4.92E-05,0.184846154,1.85E-05,0.184846154,1.39E-05,0.184846154,-4.58E-05,1.2015,0.296875,1.2015,-0.96875,1.2015,0.359375,1.2015,6.351145267,1.2015,9.282443047,1.2015,-16.12213707
0.185884615,-5.57E-05,0.185884615,5.93E-05,0.185884615,2.18E-05,0.185884615,-4.11E-05,1.20825,0.140625,1.20825,-0.890625,1.20825,0.5,1.20825,6.351145267,1.20825,11.23664093,1.20825,-12.70229053
0.186923077,-1.66E-05,0.186923077,4.28E-05,0.186923077,3.94E-05,0.186923077,1.33E-05,1.215,0.15625,1.215,-0.953125,1.215,0.25,1.215,6.8396945,1.215,9.770992279,1.215,-15.1450386
0.187961538,1.66E-05,0.187961538,4.99E-05,0.187961538,4.20E-05,0.187961538,1.83E-05,1.22175,0.359375,1.22175,-1.03125,1.22175,0.125,1.22175,8.305343628,1.22175,8.305343628,1.22175,-20.51908302
0.189,4.11E-05,0.189,5.35E-05,0.189,5.02E-05,0.189,1.66E-05,1.2285,0.328125,1.2285,-0.984375,1.2285,0.1875,1.2285,9.770992279,1.2285,9.282443047,1.2285,-13.679389
0.190038462,1.86E-05,0.190038462,2.92E-05,0.190038462,6.19E-05,0.190038462,2.53E-05,1.23525,0.296875,1.23525,-0.921875,1.23525,0.203125,1.23525,12.21374035,1.23525,8.305343628,1.23525,-12.70229053
0.191076923,1.46E-05,0.191076923,2.85E-06,0.191076923,5.93E-05,0.191076923,-4.08E-05,1.242,0.328125,1.242,-0.828125,1.242,0.28125,1.242,15.63358784,1.242,7.328244209,1.242,-11.23664093
0.192115385,-3.19E-06,0.192115385,8.22E-06,0.192115385,5.34E-05,0.192115385,4.45E-05,1.24875,0.265625,1.24875,-0.96875,1.24875,0.25,1.24875,14.16793919,1.24875,10.25954151,1.24875,-6.8396945
0.193153846,-1.86E-05,0.193153846,4.21E-05,0.193153846,5.12E-05,0.193153846,6.19E-05,1.2555,0.328125,1.2555,-1.0625,1.2555,0.1875,1.2555,12.70229053,1.2555,10.7480917,1.2555,-6.8396945
0.194192308,-2.64E-05,0.194192308,3.17E-05,0.194192308,3.44E-05,0.194192308,-2.47E-05,1.26225,0.328125,1.26225,-0.890625,1.26225,0.3125,1.26225,16.12213707,1.26225,9.282443047,1.26225,-4.88549614
0.195230769,-1.59E-05,0.195230769,-8.39E-07,0.195230769,3.54E-05,0.195230769,-4.85E-05,1.269,0.171875,1.269,-0.890625,1.269,0.296875,1.269,15.63358784,1.269,10.7480917,1.269,-2.44274807
0.196269231,3.52E-06,0.196269231,-1.93E-05,0.196269231,3.81E-05,0.196269231,-0.000116991,1.27575,0.171875,1.27575,-0.90625,1.27575,0.1875,1.27575,13.679389,1.27575,9.282443047,1.27575,-6.351145267
0.197307692,1.68E-07,0.197307692,1.66E-05,0.197307692,3.74E-05,0.197307692,2.17E-05,1.2825,0.3125,1.2825,-0.953125,1.2825,0.203125,1.2825,14.16793919,1.2825,8.305343628,1.2825,-6.351145267
0.198346154,-1.29E-05,0.198346154,1.66E-05,0.198346154,3.81E-05,0.198346154,0.00010457,1.28925,0.28125,1.28925,-0.96875,1.28925,0.265625,1.28925,14.65648842,1.28925,8.79389286,1.28925,-4.88549614
0.199384615,-1.36E-05,0.199384615,1.91E-05,0.199384615,3.74E-05,0.199384615,7.60E-05,1.296,0.3125,1.296,-0.96875,1.296,0.265625,1.296,15.63358784,1.296,8.79389286,1.296,-3.41984725
0.200423077,-2.33E-05,0.200423077,-5.87E-06,0.200423077,2.90E-05,0.200423077,-7.39E-06,1.30275,0.296875,1.30275,-0.875,1.30275,0.328125,1.30275,15.1450386,1.30275,10.25954151,1.30275,-0.48854962
0.201461538,-2.62E-05,0.201461538,-2.84E-05,0.201461538,2.06E-05,0.201461538,-0.000103563,1.3095,0.21875,1.3095,-0.9375,1.3095,0.3125,1.3095,15.1450386,1.3095,9.282443047,1.3095,-1.46564889
0.2025,-2.00E-05,0.2025,4.41E-05,0.2025,1.12E-05,0.2025,1.28E-05,1.31625,0.25,1.31625,-0.921875,1.31625,0.234375,1.31625,14.16793919,1.31625,9.770992279,1.31625,-1.46564889
0.203538462,-2.53E-05,0.203538462,0.00012723,0.203538462,1.02E-05,0.203538462,4.45E-05,1.323,0.234375,1.323,-0.890625,1.323,0.3125,1.323,14.65648842,1.323,9.282443047,1.323,-2.44274807
0.204576923,-1.93E-05,0.204576923,0.000237171,0.204576923,6.55E-06,0.204576923,-1.39E-05,1.32975,0.203125,1.32975,-0.90625,1.32975,0.3125,1.32975,14.65648842,1.32975,9.282443047,1.32975,-1.46564889
0.205615385,-2.87E-05,0.205615385,0.000310353,0.205615385,7.89E-06,0.205615385,-1.46E-05,1.3365,0.203125,1.3365,-1.015625,1.3365,0.1875,1.3365,12.70229053,1.3365,9.770992279,1.3365,-3.908396959
0.206653846,-3.69E-05,0.206653846,0.000323445,0.206653846,7.72E-06,0.206653846,-3.86E-06,1.34325,0.296875,1.34325,-0.921875,1.34325,0.171875,1.34325,12.70229053,1.34325,7.328244209,1.34325,-5.374045849
0.207692308,-3.61E-05,0.207692308,0.00023415,0.207692308,2.18E-06,0.207692308,-7.55E-06,1.35,0.25,1.35,-0.96875,1.35,0.203125,1.35,12.70229053,1.35,7.816793919,1.35,-5.862595558
0.208730769,-4.18E-05,0.208730769,0.000148882,0.208730769,-1.68E-07,0.208730769,1.01E-06,1.35675,0.265625,1.35675,-0.953125,1.35675,0.3125,1.35675,12.70229053,1.35675,6.351145267,1.35675,-5.374045849
0.209769231,-2.97E-05,0.209769231,7.08E-05,0.209769231,-9.57E-06,0.209769231,1.06E-05,1.3635,0.234375,1.3635,-0.859375,1.3635,0.296875,1.3635,13.19083977,1.3635,6.8396945,1.3635,-3.41984725
0.210807692,-2.18E-06,0.210807692,2.64E-05,0.210807692,-2.01E-06,0.210807692,3.96E-05,1.37025,0.25,1.37025,-0.890625,1.37025,0.234375,1.37025,12.21374035,1.37025,7.328244209,1.37025,-5.374045849
0.211846154,2.60E-05,0.211846154,-5.82E-05,0.211846154,3.86E-06,0.211846154,-1.49E-05,1.377,0.28125,1.377,-0.90625,1.377,0.21875,1.377,11.23664093,1.377,8.79389286,1.377,-4.39694643
0.212884615,3.21E-05,0.212884615,-0.000155261,0.212884615,1.26E-05,0.212884615,-2.69E-06,1.38375,0.3125,1.38375,-0.890625,1.38375,0.359375,1.38375,13.19083977,1.38375,8.79389286,1.38375,-0.97709924
0.213923077,1.71E-05,0.213923077,-0.000155261,0.213923077,1.85E-06,0.213923077,-3.54E-05,1.3905,0.25,1.3905,-0.875,1.3905,0.296875,1.3905,12.21374035,1.3905,10.7480917,1.3905,-0.48854962
0.214961538,1.33E-05,0.214961538,-0.000114977,0.214961538,1.26E-05,0.214961538,-0.000206287,1.39725,0.28125,1.39725,-0.953125,1.39725,0.140625,1.39725,11.23664093,1.39725,11.23664093,1.39725,-1.95419848
0.216,1.64E-05,0.216,-0.000144183,0.216,2.57E-05,0.216,-0.00020763,1.404,0.328125,1.404,-0.875,1.404,0.171875,1.404,11.72519112,1.404,11.72519112,1.404,1.95419848
0.217038462,6.88E-06,0.217038462,-0.000153246,0.217038462,2.33E-05,0.217038462,-0.00025127,1.41075,0.265625,1.41075,-0.921875,1.41075,0.234375,1.41075,12.21374035,1.41075,11.23664093,1.41075,2.44274807
0.218076923,8.90E-06,0.218076923,-0.000144518,0.218076923,8.06E-06,0.218076923,-0.000261677,1.4175,0.296875,1.4175,-0.90625,1.4175,0.328125,1.4175,13.19083977,1.4175,12.21374035,1.4175,2.931297779
0.219115385,-3.46E-05,0.219115385,-0.000186816,0.219115385,3.47E-05,0.219115385,-0.000105074,1.42425,0.234375,1.42425,-0.875,1.42425,0.296875,1.42425,13.19083977,1.42425,13.19083977,1.42425,3.41984725
0.220153846,-0.000197894,0.220153846,-0.000197223,0.220153846,0.000151904,0.220153846,5.56E-05,1.431,0.25,1.431,-0.921875,1.431,0.25,1.431,13.19083977,1.431,13.19083977,1.431,2.44274807
0.221192308,-0.000350805,0.221192308,-0.000175402,0.221192308,0.000254963,0.221192308,5.35E-05,1.43775,0.265625,1.43775,-0.96875,1.43775,0.3125,1.43775,13.679389,1.43775,13.679389,1.43775,1.95419848
0.222230769,-0.000478202,0.222230769,-0.000156603,0.222230769,0.000322606,0.222230769,-0.000111955,1.4445,0.234375,1.4445,-0.859375,1.4445,0.359375,1.4445,16.12213707,1.4445,13.19083977,1.4445,2.931297779
0.223269231,-0.00052285,0.223269231,-0.000417273,0.223269231,0.000355673,0.223269231,-5.12E-05,1.45125,0.203125,1.45125,-0.890625,1.45125,0.203125,1.45125,15.63358784,1.45125,14.65648842,1.45125,3.41984725
0.224307692,-0.000573541,0.224307692,-0.00069305,0.224307692,0.000380346,0.224307692,-7.05E-06,1.458,0.265625,1.458,-0.984375,1.458,0.21875,1.458,15.1450386,1.458,14.65648842,1.458,1.46564889
0.225346154,-0.000575891,0.225346154,-0.000576898,0.225346154,0.00038555,0.225346154,0.000183459,1.46475,0.296875,1.46475,-0.890625,1.46475,0.234375,1.46475,16.61068726,1.46475,14.16793919,1.46475,3.908396959
0.226384615,-0.000530236,0.226384615,-0.000454368,0.226384615,0.000405356,0.226384615,0.000415427,1.4715,0.28125,1.4715,-0.96875,1.4715,0.28125,1.4715,16.12213707,1.4715,16.12213707,1.4715,3.908396959
0.227423077,-0.000345937,0.227423077,-0.000330495,0.227423077,0.000324117,0.227423077,0.000484077,1.47825,0.25,1.47825,-0.9375,1.47825,0.375,1.47825,17.09923744,1.47825,17.58778572,1.47825,5.862595558
0.228461538,-0.000335866,0.228461538,-0.000185138,0.228461538,0.000159121,0.228461538,0.000467124,1.485,0.234375,1.485,-0.875,1.485,0.328125,1.485,18.07633591,1.485,17.09923744,1.485,7.816793919
0.2295,-0.000417777,0.2295,-0.000124376,0.2295,2.13E-05,0.2295,0.000653773,1.49175,0.234375,1.49175,-0.9375,1.49175,0.234375,1.49175,17.09923744,1.49175,18.07633591,1.49175,3.908396959
0.230538462,-0.000452689,0.230538462,-1.23E-05,0.230538462,-0.00010222,0.230538462,0.000758511,1.4985,0.296875,1.4985,-1,1.4985,0.328125,1.4985,19.54198456,1.4985,17.09923744,1.4985,5.374045849
0.231576923,-0.000380179,0.231576923,8.54E-05,0.231576923,-0.000204273,0.231576923,0.000489784,1.50525,0.328125,1.50525,-0.875,1.50525,0.40625,1.50525,20.51908302,1.50525,19.54198456,1.50525,10.25954151
0.232615385,-0.000325963,0.232615385,0.000159625,0.232615385,-0.000200916,0.232615385,0.000352987,1.512,0.234375,1.512,-0.921875,1.512,0.25,1.512,19.05343437,1.512,21.98473358,1.512,7.816793919
0.233653846,-0.000332509,0.233653846,0.000175402,0.233653846,-5.67E-05,0.233653846,0.000213672,1.51875,0.265625,1.51875,-1.03125,1.51875,0.21875,1.51875,20.51908302,1.51875,19.54198456,1.51875,6.351145267
0.234692308,-0.000120516,0.234692308,0.000179095,0.234692308,4.35E-05,0.234692308,3.41E-05,1.5255,0.328125,1.5255,-0.953125,1.5255,0.234375,1.5255,21.4961834,1.5255,21.4961834,1.5255,9.770992279
0.235730769,0.000112963,0.235730769,0.000212665,0.235730769,0.000117159,0.235730769,-9.92E-05,1.53225,0.234375,1.53225,-1.03125,1.53225,0.328125,1.53225,21.98473358,1.53225,21.4961834,1.53225,10.25954151
0.236769231,0.000281315,0.236769231,0.000238178,0.236769231,0.000179767,0.236769231,-0.000200244,1.539,0.25,1.539,-0.984375,1.539,0.4375,1.539,23.93893051,1.539,20.51908302,1.539,11.23664093
0.237807692,0.000452354,0.237807692,0.000187823,0.237807692,0.000224582,0.237807692,-0.000353323,1.54575,0.21875,1.54575,-0.984375,1.54575,0.28125,1.54575,22.96183205,1.54575,20.51908302,1.54575,11.72519112
0.238846154,0.000584955,0.238846154,0.000139483,0.238846154,0.000295247,0.238846154,-0.000322438,1.5525,0.34375,1.5525,-1.015625,1.5525,0.21875,1.5525,21.4961834,1.5525,19.54198456,1.5525,7.816793919
0.239884615,0.000655787,0.239884615,9.18E-05,0.239884615,0.00041912,0.239884615,-0.000282826,1.55925,0.3125,1.55925,-1.109375,1.55925,0.359375,1.55925,21.98473358,1.55925,20.51908302,1.55925,9.282443047
0.240923077,0.000675761,0.240923077,9.63E-05,0.240923077,0.000612818,0.240923077,-0.000382528,1.566,0.234375,1.566,-1,1.566,0.375,1.566,23.93893051,1.566,19.54198456,1.566,10.7480917
0.241961538,0.000703792,0.241961538,0.000129412,0.241961538,0.000513787,0.241961538,-0.000416434,1.57275,0.140625,1.57275,-1.046875,1.57275,0.296875,1.57275,21.4961834,1.57275,20.03053474,1.57275,7.328244209
0.243,0.000732998,0.243,0.000136126,0.243,0.000166003,0.243,-0.000415091,1.5795,0.171875,1.5795,-1.078125,1.5795,0.328125,1.5795,24.91603088,1.5795,16.61068726,1.5795,2.44274807
0.244038462,0.000709163,0.244038462,0.000133776,0.244038462,-9.84E-05,0.244038462,-0.000399481,1.58625,0.15625,1.58625,-1.046875,1.58625,0.328125,1.58625,29.31297684,1.58625,13.679389,1.58625,-1.95419848
0.245076923,0.000661662,0.245076923,0.000140826,0.245076923,-0.000319585,0.245076923,-0.000428183,1.593,0.15625,1.593,-1.09375,1.593,0.359375,1.593,34.19847488,1.593,11.23664093,1.593,-3.41984725
0.246115385,0.000606775,0.246115385,0.000122026,0.246115385,-0.000490623,0.246115385,-0.000292897,1.59975,0.28125,1.59975,-1.390625,1.59975,0.671875,1.59975,51.29771042,1.59975,3.41984725,1.59975,-14.16793919
0.247153846,0.000544167,0.247153846,5.66E-05,0.247153846,-0.000616175,0.247153846,-0.00020763,1.6065,0.28125,1.6065,-0.765625,1.6065,0.296875,1.6065,53.25190735,1.6065,-0.48854962,1.6065,-20.03053474
0.248192308,0.00047451,0.248192308,4.08E-05,0.248192308,-0.000687846,0.248192308,-0.000337545,1.61325,0.234375,1.61325,-1.078125,1.61325,0.21875,1.61325,48.8549614,1.61325,7.328244209,1.61325,-12.21374035
0.249230769,0.000413245,0.249230769,7.37E-05,0.249230769,-0.000720912,0.249230769,-0.000268391,1.62,0.40625,1.62,-1.078125,1.62,0.375,1.62,57.6488533,1.62,8.305343628,1.62,-6.8396945
0.250269231,0.000367086,0.250269231,7.13E-05,0.250269231,-0.000729473,0.250269231,-0.000223072,1.62675,0.390625,1.62675,-1,1.62675,0.4375,1.62675,58.1374054,1.62675,15.63358784,1.62675,-4.88549614
0.251307692,0.000322774,0.251307692,5.09E-05,0.251307692,-0.000717891,0.251307692,-0.00017171,1.6335,0.3125,1.6335,-1.125,1.6335,0.3125,1.6335,60.58015442,1.6335,17.09923744,1.6335,-7.816793919
0.252346154,0.000259327,0.252346154,-1.19E-05,0.252346154,-0.000694057,0.252346154,-0.000119844,1.64025,0.21875,1.64025,-1.171875,1.64025,0.203125,1.64025,64,1.64025,19.54198456,1.64025,-9.770992279
0.253384615,0.000191852,0.253384615,-4.45E-05,0.253384615,-0.000660151,0.253384615,-7.67E-05,1.647,-0.03125,1.647,-1.125,1.647,0.328125,1.647,69.8625946,1.647,18.07633591,1.647,-10.25954151
0.254423077,0.000117327,0.254423077,-2.03E-05,0.254423077,-0.000617853,0.254423077,-9.70E-05,1.65375,0.34375,1.65375,-1.375,1.65375,0.5625,1.65375,70.35114288,1.65375,10.25954151,1.65375,-1.46564889
0.255461538,7.64E-05,0.255461538,-1.51E-06,0.255461538,-0.000571023,0.255461538,-0.000154589,1.6605,0.640625,1.6605,-1.390625,1.6605,0.3125,1.6605,81.09923553,1.6605,10.25954151,1.6605,-1.46564889
0.2565,3.68E-05,0.2565,2.52E-06,0.2565,-0.000507744,0.2565,-5.62E-05,1.66725,0.734375,1.66725,-1.34375,1.66725,0.1875,1.66725,86.96183014,1.66725,17.58778572,1.66725,-14.16793919
0.257538462,5.04E-07,0.257538462,-6.21E-06,0.257538462,-0.000452689,0.257538462,-4.08E-05,1.674,0.65625,1.674,-1.53125,1.674,0.453125,1.674,89.89312744,1.674,32.24427414,1.674,-15.63358784
0.258576923,-2.30E-05,0.258576923,-2.52E-06,0.258576923,-0.000404181,0.258576923,-2.70E-05,1.68075,0.71875,1.68075,-1.75,1.68075,0.578125,1.68075,102.5954208,1.68075,41.03816605,1.68075,-18.07633591
0.259615385,-3.16E-05,0.259615385,7.05E-06,0.259615385,-0.000356008,0.259615385,-4.48E-05,1.6875,0.734375,1.6875,-1.671875,1.6875,0.53125,1.6875,119.2061081,1.6875,54.717556,1.6875,-28.33587837
0.260653846,-4.85E-05,0.260653846,1.93E-05,0.260653846,-0.00029189,0.260653846,-2.77E-05,1.69425,0.71875,1.69425,-1.875,1.69425,0.59375,1.69425,128,1.69425,65.95420074,1.69425,-33.70992279
0.261692308,-3.59E-05,0.261692308,3.44E-05,0.261692308,-0.000229786,0.261692308,-1.64E-05,1.701,0.75,1.701,-2,1.701,0.609375,1.701,143.1450348,1.701,75.23664093,1.701,-42.99236679
0.262730769,-3.11E-05,0.262730769,5.35E-05,0.262730769,-0.000165499,0.262730769,5.05E-05,1.70775,0.765625,1.70775,-2.21875,1.70775,0.5,1.70775,163.6641235,1.70775,83.54198456,1.70775,-52.76335907
0.263769231,-5.93E-05,0.263769231,6.03E-05,0.263769231,-0.000115648,0.263769231,8.98E-05,1.7145,0.90625,1.7145,-2.234375,1.7145,0.453125,1.7145,180.2748108,1.7145,95.26717377,1.7145,-59.11450195
0.264807692,-9.92E-05,0.264807692,3.99E-05,0.264807692,-7.54E-05,0.264807692,8.56E-05,1.72125,0.96875,1.72125,-2.359375,1.72125,0.34375,1.72125,196.885498,1.72125,110.9007645,1.72125,-68.39694977
0.265846154,-0.000147875,0.265846154,-1.33E-05,0.265846154,-3.69E-05,0.265846154,0.000126726,1.728,0.84375,1.728,-2.421875,1.728,-0.046875,1.728,217.8931274,1.728,122.6259537,1.728,-77.19084167
0.266884615,-0.00017641,0.266884615,5.54E-06,0.266884615,6.55E-06,0.266884615,2.20E-05,1.73475,0.953125,1.73475,-2.296875,1.73475,-0.03125,1.73475,234.015274,1.73475,145.5877838,1.73475,-85.00763702
0.267923077,-0.000171206,0.267923077,2.27E-05,0.267923077,2.67E-05,0.267923077,1.39E-05,1.7415,0.734375,1.7415,-2.109375,1.7415,0.140625,1.7415,240.8549652,1.7415,167.0839691,1.7415,-83.54198456
0.268961538,-0.000168353,0.268961538,-2.10E-05,0.268961538,5.32E-05,0.268961538,0.00010927,1.74825,0.515625,1.74825,-2.046875,1.74825,0.03125,1.74825,240.3664093,1.74825,174.9007568,1.74825,-78.16793823
0.27,-0.000164996,0.27,-0.000100374,0.27,8.44E-05,0.27,0.00011162,1.755,0.578125,1.755,-1.90625,1.755,-0.25,1.755,239.8778687,1.755,181.7404633,1.755,-62.53435135
0.271038462,-0.000163989,0.271038462,-0.000134447,0.271038462,0.000120348,0.271038462,0.000252277,1.76175,0.1875,1.76175,-1.6875,1.76175,-0.359375,1.76175,235.4809113,1.76175,202.2595367,1.76175,-51.29771042
0.272076923,-0.000171374,0.272076923,-4.58E-05,0.272076923,0.000154253,0.272076923,0.000242206,1.7685,-0.109375,1.7685,-1.625,1.7685,-0.09375,1.7685,235.4809113,1.7685,205.1908417,1.7685,-26.38167953
0.273115385,-0.000180774,0.273115385,4.15E-05,0.273115385,0.000155093,0.273115385,3.71E-05,1.77525,-0.28125,1.77525,-1.296875,1.77525,0.15625,1.77525,244.2748108,1.77525,179.7862549,1.77525,8.79389286
0.274153846,-0.000188327,0.274153846,1.51E-06,0.274153846,0.000145861,0.274153846,7.75E-05,1.782,-0.28125,1.782,-0.84375,1.782,0.234375,1.782,244.7633514,1.782,129.4656525,1.782,50.32061005
0.275192308,-0.000221729,0.275192308,-5.32E-05,0.275192308,0.000163989,0.275192308,0.000136797,1.78875,0.171875,1.78875,-0.6875,1.78875,-0.078125,1.78875,231.572525,1.78875,62.04580307,1.78875,85.4961853
0.276230769,-0.000171542,0.276230769,-1.09E-05,0.276230769,0.000179599,0.276230769,6.33E-05,1.7955,1.671875,1.7955,-0.65625,1.7955,-0.53125,1.7955,211.0534363,1.7955,11.72519112,1.7955,85.00763702
0.277269231,-5.67E-05,0.277269231,1.33E-05,0.277269231,0.000168185,0.277269231,7.57E-05,1.80225,2.453125,1.80225,-0.140625,1.80225,-1.015625,1.80225,173.9236603,1.80225,45.92366409,1.80225,42.01526642
0.278307692,-2.50E-05,0.278307692,-4.28E-05,0.278307692,0.000154589,0.278307692,8.81E-05,1.809,2.203125,1.809,-0.0625,1.809,-1.078125,1.809,114.32061,1.809,122.6259537,1.809,-0.48854962
0.279346154,-5.93E-05,0.279346154,-6.03E-05,0.279346154,0.000138811,0.279346154,-0.000210147,1.81575,1.34375,1.81575,-0.34375,1.81575,-0.953125,1.81575,74.25954437,1.81575,160.244278,1.81575,-15.63358784
0.280384615,-8.81E-05,0.280384615,-5.05E-05,0.280384615,0.000147539,0.280384615,-0.000345266,1.8225,0.796875,1.8225,-0.46875,1.8225,-0.875,1.8225,53.25190735,1.8225,164.6412201,1.8225,-6.351145267
0.281423077,-0.000105577,0.281423077,-6.40E-05,0.281423077,0.000153582,0.281423077,-0.00041912,1.82925,0.546875,1.82925,-0.359375,1.82925,-0.859375,1.82925,34.68702316,1.82925,164.6412201,1.82925,8.79389286
0.282461538,-0.000107591,0.282461538,-9.58E-05,0.282461538,0.000149554,0.282461538,-0.000493141,1.836,0.40625,1.836,-0.328125,1.836,-0.796875,1.836,16.61068726,1.836,161.7099304,1.836,16.61068726
0.2835,-0.000125719,0.2835,-0.000125048,0.2835,0.000142168,0.2835,-0.000457389,1.84275,0.1875,1.84275,-0.34375,1.84275,-0.71875,1.84275,0.97709924,1.84275,150.9618378,1.84275,18.56488609
0.284538462,-0.000143847,0.284538462,-7.20E-05,0.284538462,0.000143175,0.284538462,-0.000340734,1.8495,0.015625,1.8495,-0.34375,1.8495,-0.65625,1.8495,-5.862595558,1.8495,141.1908417,1.8495,18.56488609
0.285576923,-0.000154589,0.285576923,1.96E-05,0.285576923,0.000144518,0.285576923,-0.000381186,1.85625,-0.03125,1.85625,-0.34375,1.85625,-0.609375,1.85625,-17.58778572,1.85625,116.7633591,1.85625,18.56488609
0.286615385,-0.000158282,0.286615385,6.13E-05,0.286615385,0.00013344,0.286615385,-0.000107591,1.863,-0.0625,1.863,-0.328125,1.863,-0.578125,1.863,-28.33587837,1.863,93.80152893,1.863,16.12213707
0.287653846,-0.000122026,0.287653846,3.32E-05,0.287653846,0.000123033,0.287653846,4.88E-05,1.86975,-0.109375,1.86975,-0.3125,1.86975,-0.5625,1.86975,-39.5725174,1.86975,70.83969116,1.86975,14.16793919
0.288692308,-6.93E-05,0.288692308,8.71E-05,0.288692308,0.000115312,0.288692308,0.000128405,1.8765,-0.125,1.8765,-0.296875,1.8765,-0.5625,1.8765,-49.83206177,1.8765,45.43511581,1.8765,8.79389286
0.289730769,-2.70E-05,0.289730769,0.000115312,0.289730769,0.000112123,0.289730769,0.000214343,1.88325,-0.09375,1.88325,-0.28125,1.88325,-0.546875,1.88325,-60.09160233,1.88325,19.54198456,1.88325,2.44274807
0.290769231,-5.87E-06,0.290769231,5.46E-05,0.290769231,0.000104906,0.290769231,0.000280476,1.89,-0.046875,1.89,-0.265625,1.89,-0.53125,1.89,-70.35114288,1.89,-3.908396959,1.89,-3.908396959
0.291807692,1.26E-05,0.291807692,-9.06E-06,0.291807692,9.25E-05,0.291807692,0.000324788,1.89675,-0.015625,1.89675,-0.25,1.89675,-0.53125,1.89675,-80.12213898,1.89675,-24.91603088,1.89675,-11.23664093
0.292846154,6.26E-05,0.292846154,-3.98E-05,0.292846154,8.64E-05,0.292846154,0.00035903,1.9035,0.03125,1.9035,-0.234375,1.9035,-0.515625,1.9035,-91.84732819,1.9035,-43.48091507,1.9035,-18.56488609
0.293884615,8.04E-05,0.293884615,-4.45E-05,0.293884615,5.89E-05,0.293884615,0.000374807,1.91025,0.078125,1.91025,-0.234375,1.91025,-0.515625,1.91025,-104.0610657,1.91025,-59.60305405,1.91025,-23.93893051
0.294923077,0.000138811,0.294923077,-5.69E-05,0.294923077,-0.000106249,0.294923077,0.000378164,1.917,0.1875,1.917,-0.25,1.917,-0.484375,1.917,-116.7633591,1.917,-70.83969116,1.917,-28.33587837
0.295961538,0.000158282,0.295961538,-6.34E-05,0.295961538,-0.000228779,0.295961538,0.000372457,1.92375,0.265625,1.92375,-0.265625,1.92375,-0.4375,1.92375,-128.9770966,1.92375,-76.21373749,1.92375,-33.22137451
0.297,0.000103731,0.297,-6.97E-05,0.297,-0.000333181,0.297,0.00035198,1.9305,0.3125,1.9305,-0.296875,1.9305,-0.390625,1.9305,-140.7022858,1.9305,-78.16793823,1.9305,-37.12977219
0.298038462,3.78E-05,0.298038462,-7.74E-05,0.298038462,-0.000292226,0.298038462,0.00032932,1.93725,0.34375,1.93725,-0.34375,1.93725,-0.34375,1.93725,-151.4503784,1.93725,-78.16793823,1.93725,-40.54961777
0.299076923,-1.51E-06,0.299076923,-7.40E-05,0.299076923,-0.000183795,0.299076923,0.000363058,1.944,0.359375,1.944,-0.40625,1.944,-0.296875,1.944,-162.1984711,1.944,-76.7022934,1.944,-42.01526642
0.300115385,-4.21E-05,0.300115385,-6.80E-05,0.300115385,-0.000103899,0.300115385,0.000327138,1.95075,0.375,1.95075,-0.453125,1.95075,-0.265625,1.95075,-172.9465637,1.95075,-74.25954437,1.95075,-42.50381851
0.301153846,-7.42E-05,0.301153846,-7.70E-05,0.301153846,-4.06E-05,0.301153846,0.000151568,1.9575,0.40625,1.9575,-0.515625,1.9575,-0.234375,1.9575,-178.3206177,1.9575,-71.81679535,1.9575,-43.48091507
0.302192308,-9.65E-05,0.302192308,-9.18E-05,0.302192308,6.88E-06,0.302192308,0.000292897,1.96425,0.40625,1.96425,-0.59375,1.96425,-0.1875,1.96425,-189.557251,1.96425,-66.9312973,1.96425,-46.41221237
0.303230769,-0.000105074,0.303230769,-9.16E-05,0.303230769,4.67E-05,0.303230769,0.000376486,1.971,0.375,1.971,-0.671875,1.971,-0.140625,1.971,-199.8167877,1.971,-62.53435135,1.971,-50.80916214
0.304269231,-0.000110445,0.304269231,-8.51E-05,0.304269231,7.50E-05,0.304269231,0.000207965,1.97775,0.328125,1.97775,-0.78125,1.97775,-0.078125,1.97775,-208.6106873,1.97775,-58.1374054,1.97775,-55.20610809
0.305307692,-0.000115312,0.305307692,-7.57E-05,0.305307692,9.52E-05,0.305307692,0.000398642,1.9845,0.234375,1.9845,-0.859375,1.9845,-0.015625,1.9845,-215.4503784,1.9845,-55.20610809,1.9845,-58.1374054
0.306346154,-0.00012874,0.306346154,-5.32E-05,0.306346154,9.35E-05,0.306346154,0.000438926,1.99125,0.140625,1.99125,-0.953125,1.99125,0.046875,1.99125,-220.8244324,1.99125,-56.67175674,1.99125,-55.20610809
0.307384615,-0.000136126,0.307384615,-2.47E-05,0.307384615,0.000106584,0.307384615,-0.000194537,1.998,0,1.998,-1.046875,1.998,0.125,1.998,-224.7328186,1.998,-58.62595367,1.998,-56.67175674
0.308423077,-0.000129747,0.308423077,-2.43E-05,0.308423077,0.000135454,0.308423077,-7.34E-05,2.00475,-0.046875,2.00475,-1.078125,2.00475,0.15625,2.00475,-225.2213745,2.00475,-68.39694977,2.00475,-54.22900772
0.309461538,-0.000130755,0.309461538,-6.50E-05,0.309461538,0.000135454,0.309461538,-5.25E-05,2.0115,-0.109375,2.0115,-1.140625,2.0115,0.1875,2.0115,-226.687027,2.0115,-78.16793823,2.0115,-50.32061005
0.3105,-0.00010457,0.3105,-7.27E-05,0.3105,0.000139483,0.3105,-3.86E-06,2.01825,-0.109375,2.01825,-1.171875,2.01825,0.203125,2.01825,-226.687027,2.01825,-90.38167572,2.01825,-46.90076447
0.311538462,-7.80E-05,0.311538462,-3.34E-05,0.311538462,0.000149554,0.311538462,1.39E-05,2.025,-0.171875,2.025,-1.234375,2.025,0.21875,2.025,-224.7328186,2.025,-106.0152664,2.025,-45.43511581
0.312576923,-7.20E-05,0.312576923,-8.22E-06,0.312576923,0.00017171,0.312576923,1.70E-05,2.03175,-0.140625,2.03175,-1.28125,2.03175,0.203125,2.03175,-224.7328186,2.03175,-121.1603088,2.03175,-42.50381851
0.313615385,-5.00E-05,0.313615385,4.53E-06,0.313615385,0.000168353,0.313615385,-3.21E-05,2.0385,-0.078125,2.0385,-1.328125,2.0385,0.203125,2.0385,-225.2213745,2.0385,-134.8396912,2.0385,-39.08396912
0.314653846,-4.65E-05,0.314653846,2.64E-05,0.314653846,0.000142168,0.314653846,-2.30E-05,2.04525,-0.015625,2.04525,-1.390625,2.04525,0.21875,2.04525,-226.1984711,2.04525,-148.0305328,2.04525,-36.15267181
0.315692308,-6.36E-05,0.315692308,4.38E-05,0.315692308,0.00010692,0.315692308,3.54E-05,2.052,0.109375,2.052,-1.453125,2.052,0.265625,2.052,-227.1755676,2.052,-159.2671814,2.052,-32.73282623
0.316730769,-7.49E-05,0.316730769,1.17E-06,0.316730769,7.86E-05,0.316730769,9.20E-05,2.05875,0.25,2.05875,-1.515625,2.05875,0.328125,2.05875,-228.1526642,2.05875,-166.1068726,2.05875,-31.75572586
0.317769231,-6.55E-05,0.317769231,-8.01E-05,0.317769231,6.50E-05,0.317769231,0.00017171,2.0655,0.34375,2.0655,-1.5625,2.0655,0.421875,2.0655,-228.6412201,2.0655,-168.0610657,2.0655,-31.26717567
0.318807692,-4.82E-05,0.318807692,-9.85E-05,0.318807692,5.89E-05,0.318807692,-5.25E-05,2.07225,0.4375,2.07225,-1.609375,2.07225,0.546875,2.07225,-228.6412201,2.07225,-171.9694672,2.07225,-30.77862549
0.319846154,-4.28E-05,0.319846154,-3.94E-05,0.319846154,4.55E-05,0.319846154,-0.000179431,2.079,0.5,2.079,-1.625,2.079,0.703125,2.079,-227.1755676,2.079,-173.9236603,2.079,-31.26717567
0.320884615,-5.59E-05,0.320884615,-3.64E-05,0.320884615,3.07E-05,0.320884615,-5.29E-05,2.08575,0.625,2.08575,-1.546875,2.08575,0.84375,2.08575,-224.7328186,2.08575,-173.9236603,2.08575,-33.22137451
0.321923077,-4.18E-05,0.321923077,-7.03E-05,0.321923077,2.77E-05,0.321923077,-0.000122698,2.0925,0.578125,2.0925,-1.65625,2.0925,1.109375,2.0925,-225.2213745,2.0925,-156.3358765,2.0925,-43.96946716
0.322961538,-2.94E-05,0.322961538,-1.98E-05,0.322961538,2.40E-05,0.322961538,-0.000105074,2.09925,0.203125,2.09925,-1.75,2.09925,1.390625,2.09925,-220.3358765,2.09925,-142.6564941,2.09925,-48.36641312
0.324,-3.94E-05,0.324,5.93E-05,0.324,2.03E-05,0.324,-4.87E-06,2.106,0.15625,2.106,-1.75,2.106,1.640625,2.106,-208.1221313,2.106,-144.1221313,2.106,-37.61832047
0.325038462,-6.14E-05,0.325038462,8.95E-05,0.325038462,1.80E-05,0.325038462,4.28E-05,2.11275,0.203125,2.11275,-1.734375,2.11275,1.890625,2.11275,-193.9541931,2.11275,-136.7938995,2.11275,-18.07633591
0.326076923,-6.06E-05,0.326076923,3.71E-05,0.326076923,7.05E-06,0.326076923,-6.87E-05,2.1195,0.140625,2.1195,-1.71875,2.1195,2.140625,2.1195,-176.3664093,2.1195,-122.6259537,2.1195,-2.931297779
0.327115385,-2.64E-05,0.327115385,-1.36E-05,0.327115385,3.36E-06,0.327115385,-0.000184802,2.12625,0.09375,2.12625,-1.703125,2.12625,2.265625,2.12625,-151.4503784,2.12625,-117.2519073,2.12625,7.328244209
0.328153846,-1.26E-05,0.328153846,-1.51E-06,0.328153846,-9.74E-06,0.328153846,-7.60E-05,2.133,0.1875,2.133,-1.65625,2.133,2.5,2.133,-118.2290039,2.133,-114.32061,2.133,7.816793919
0.329192308,-3.86E-05,0.329192308,7.87E-05,0.329192308,-9.90E-06,0.329192308,3.47E-05,2.13975,0.15625,2.13975,-1.53125,2.13975,2.625,2.13975,-87.93893433,2.13975,-108.9465637,2.13975,21.00763321
0.330230769,-3.11E-05,0.330230769,0.00010457,0.330230769,-1.09E-05,0.330230769,6.83E-05,2.1465,0.21875,2.1465,-1.265625,2.1465,2.71875,2.1465,-56.67175674,2.1465,-93.31298065,2.1465,18.07633591
0.331269231,1.17E-05,0.331269231,5.04E-06,0.331269231,-1.16E-05,0.331269231,-1.76E-05,2.15325,0.234375,2.15325,-1.15625,2.15325,2.828125,2.15325,-28.82442665,2.15325,-93.80152893,2.15325,28.33587837
0.332307692,4.26E-05,0.332307692,-6.73E-05,0.332307692,-1.93E-05,0.332307692,-5.32E-05,2.16,0.6875,2.16,-0.84375,2.16,2.765625,2.16,-3.41984725,2.16,-65.95420074,2.16,-23.93893051
0.333346154,2.70E-05,0.333346154,-4.85E-05,0.333346154,-1.63E-05,0.333346154,-4.72E-05,2.16675,0.125,2.16675,-0.796875,2.16675,2.8125,2.16675,17.58778572,2.16675,-50.32061005,2.16675,-0.97709924
0.334384615,1.36E-05,0.334384615,-4.92E-05,0.334384615,-1.09E-05,0.334384615,-3.74E-05,2.1735,0.03125,2.1735,-0.921875,2.1735,2.78125,2.1735,34.19847488,2.1735,-48.8549614,2.1735,4.39694643
0.335423077,4.87E-06,0.335423077,-4.99E-05,0.335423077,-1.26E-05,0.335423077,-4.18E-05,2.18025,-0.09375,2.18025,-0.703125,2.18025,2.734375,2.18025,60.09160233,2.18025,-40.54961777,2.18025,6.351145267
0.336461538,-3.19E-06,0.336461538,-3.54E-05,0.336461538,-1.12E-05,0.336461538,-4.38E-05,2.187,-0.21875,2.187,-3.171875,2.187,4.34375,2.187,149.0076294,2.187,-18.56488609,2.187,22.47328186
0.3375,-5.54E-06,0.3375,-3.61E-05,0.3375,-1.96E-05,0.3375,-4.40E-05,2.19375,1.640625,2.19375,-1.859375,2.19375,3.828125,2.19375,249.6488495,2.19375,-31.75572586,2.19375,-8.79389286
0.338538462,-3.69E-06,0.338538462,-4.13E-05,0.338538462,-3.51E-05,0.338538462,-3.99E-05,2.2005,0.125,2.2005,-0.421875,2.2005,2.125,2.2005,249.6488495,2.2005,71.32824707,2.2005,31.26717567
0.339576923,6.55E-06,0.339576923,-2.87E-05,0.339576923,-4.05E-05,0.339576923,-3.54E-05,2.20725,-0.234375,2.20725,-1.03125,2.20725,0.625,2.20725,222.7786255,2.20725,98.68701935,2.20725,39.5725174
0.340615385,7.05E-06,0.340615385,-1.63E-05,0.340615385,-4.11E-05,0.340615385,-3.51E-05,2.214,-0.0625,2.214,-1.125,2.214,-1.46875,2.214,186.1374054,2.214,60.58015442,2.214,14.16793919
0.341653846,3.36E-07,0.341653846,-3.86E-06,0.341653846,-3.68E-05,0.341653846,-4.82E-05,2.22075,0.625,2.22075,-2,2.22075,-1.84375,2.22075,131.4198456,2.22075,17.58778572,2.22075,-0.97709924
0.342692308,-6.88E-06,0.342692308,1.85E-06,0.342692308,-3.52E-05,0.342692308,-3.31E-05,2.2275,0.921875,2.2275,-1.359375,2.2275,-1.15625,2.2275,131.4198456,2.2275,-0.97709924,2.2275,12.21374035
0.343730769,-9.57E-06,0.343730769,-5.54E-06,0.343730769,-3.51E-05,0.343730769,-1.19E-05,2.23425,0.59375,2.23425,-1.203125,2.23425,-0.640625,2.23425,122.6259537,2.23425,10.7480917,2.23425,40.06106949
0.344769231,-1.51E-05,0.344769231,-2.50E-05,0.344769231,-2.67E-05,0.344769231,-4.20E-06,2.241,-0.015625,2.241,-0.953125,2.241,0.765625,2.241,137.7709961,2.241,4.88549614,2.241,35.17557144
0.345807692,-2.13E-05,0.345807692,-3.51E-05,0.345807692,-2.57E-05,0.345807692,-7.22E-06,2.24775,0.125,2.24775,0.1875,2.24775,1.546875,2.24775,116.7633591,2.24775,4.88549614,2.24775,47.87786102
0.346846154,-4.20E-06,0.346846154,4.11E-05,0.346846154,-1.59E-05,0.346846154,-4.92E-05,2.2545,-0.109375,2.2545,0.046875,2.2545,1.03125,2.2545,64.48854828,2.2545,3.908396959,2.2545,47.87786102
0.347884615,-8.90E-06,0.347884615,6.53E-05,0.347884615,-8.90E-06,0.347884615,-4.20E-06,2.26125,0.171875,2.26125,-0.953125,2.26125,0.203125,2.26125,48.36641312,2.26125,-6.8396945,2.26125,30.77862549
0.348923077,-2.94E-05,0.348923077,2.40E-05,0.348923077,1.85E-06,0.348923077,-7.55E-06,2.268,0.625,2.268,-1.296875,2.268,-0.03125,2.268,58.62595367,2.268,-3.41984725,2.268,28.82442665
0.349961538,-3.41E-05,0.349961538,3.54E-05,0.349961538,1.02E-05,0.349961538,-5.32E-05,2.27475,0.625,2.27475,-0.921875,2.27475,0.25,2.27475,59.11450195,2.27475,9.770992279,2.27475,36.64122009
0.351,-8.22E-06,0.351,1.17E-06,0.351,1.85E-05,0.351,-7.07E-05,2.2815,-0.0625,2.2815,-0.5,2.2815,0.53125,2.2815,49.83206177,2.2815,16.12213707,2.2815,37.12977219
0.352038462,3.21E-05,0.352038462,-1.51E-05,0.352038462,2.03E-05,0.352038462,-8.78E-05,2.28825,-0.390625,2.28825,-0.765625,2.28825,0.515625,2.28825,28.82442665,2.28825,16.12213707,2.28825,19.05343437
0.353076923,2.87E-05,0.353076923,1.85E-05,0.353076923,5.04E-07,0.353076923,5.62E-05,2.295,0.234375,2.295,-0.90625,2.295,0.28125,2.295,21.98473358,2.295,2.44274807,2.295,-6.8396945
0.354115385,-1.17E-06,0.354115385,3.02E-06,0.354115385,-8.90E-06,0.354115385,-6.38E-06,2.30175,0.4375,2.30175,-0.75,2.30175,0.09375,2.30175,12.70229053,2.30175,2.931297779,2.30175,-9.282443047
0.355153846,-2.10E-05,0.355153846,-9.23E-06,0.355153846,-5.04E-06,0.355153846,-4.99E-05,2.3085,0.234375,2.3085,-0.9375,2.3085,0.171875,2.3085,2.931297779,2.3085,11.23664093,2.3085,-8.305343628
0.356192308,-2.43E-05,0.356192308,4.01E-05,0.356192308,1.06E-05,0.356192308,3.86E-06,2.31525,0.203125,2.31525,-0.84375,2.31525,0.265625,2.31525,-0.48854962,2.31525,11.23664093,2.31525,-13.19083977
0.357230769,-2.74E-05,0.357230769,4.88E-05,0.357230769,1.76E-05,0.357230769,4.75E-05,2.322,0.171875,2.322,-0.984375,2.322,0.15625,2.322,-6.8396945,2.322,11.72519112,2.322,-17.09923744
0.358269231,-2.03E-05,0.358269231,3.61E-05,0.358269231,5.20E-06,0.358269231,-4.41E-05,2.32875,0.34375,2.32875,-1.0625,2.32875,0.15625,2.32875,-3.908396959,2.32875,9.282443047,2.32875,-23.45038223
0.359307692,5.20E-06,0.359307692,2.74E-05,0.359307692,-1.29E-05,0.359307692,7.44E-05,2.3355,0.28125,2.3355,-0.984375,2.3355,0.421875,2.3355,1.95419848,2.3355,10.7480917,2.3355,-20.51908302
0.360346154,2.50E-05,0.360346154,1.80E-05,0.360346154,-3.84E-05,0.360346154,8.39E-07,2.34225,0.1875,2.34225,-0.921875,2.34225,0.5,2.34225,4.88549614,2.34225,11.72519112,2.34225,-17.09923744
0.361384615,2.94E-05,0.361384615,-4.52E-05,0.361384615,-4.26E-05,0.361384615,-2.97E-05,2.349,0.1875,2.349,-0.9375,2.349,0.328125,2.349,3.41984725,2.349,10.25954151,2.349,-21.00763321
0.362423077,2.06E-05,0.362423077,-9.75E-05,0.362423077,-3.37E-05,0.362423077,4.01E-05,2.35575,0.40625,2.35575,-1.015625,2.35575,0.203125,2.35575,6.8396945,2.35575,9.282443047,2.35575,-21.4961834
0.363461538,9.23E-06,0.363461538,-5.81E-05,0.363461538,-2.70E-05,0.363461538,-0.00011162,2.3625,0.421875,2.3625,-0.9375,2.3625,0.25,2.3625,9.770992279,2.3625,11.72519112,2.3625,-14.16793919
0.3645,1.85E-06,0.3645,3.52E-06,0.3645,-2.60E-05,0.3645,-4.72E-05,2.36925,0.296875,2.36925,-0.953125,2.36925,0.25,2.36925,12.70229053,2.36925,9.770992279,2.36925,-13.679389
0.365538462,-1.01E-05,0.365538462,-1.81E-05,0.365538462,-2.80E-05,0.365538462,-2.23E-05,2.376,0.3125,2.376,-0.875,2.376,0.265625,2.376,13.19083977,2.376,10.25954151,2.376,-9.770992279
0.366576923,-1.09E-05,0.366576923,-4.58E-05,0.366576923,-2.37E-05,0.366576923,-3.52E-06,2.38275,0.296875,2.38275,-0.90625,2.38275,0.21875,2.38275,12.70229053,2.38275,11.23664093,2.38275,-8.305343628
0.367615385,-2.06E-05,0.367615385,-6.88E-06,0.367615385,-1.83E-05,0.367615385,-7.40E-05,2.3895,0.3125,2.3895,-0.96875,2.3895,0.1875,2.3895,12.21374035,2.3895,11.23664093,2.3895,-7.816793919
0.368653846,-1.83E-05,0.368653846,-4.36E-06,0.368653846,-1.58E-05,0.368653846,-0.000124041,2.39625,0.296875,2.39625,-0.90625,2.39625,0.3125,2.39625,12.21374035,2.39625,11.72519112,2.39625,-5.862595558
0.369692308,6.88E-06,0.369692308,-2.90E-05,0.369692308,-1.38E-05,0.369692308,-7.97E-05,2.403,0.21875,2.403,-0.84375,2.403,0.28125,2.403,12.21374035,2.403,12.21374035,2.403,-2.931297779
0.370730769,2.53E-05,0.370730769,-5.74E-05,0.370730769,-2.40E-05,0.370730769,-2.67E-05,2.40975,0.25,2.40975,-0.96875,2.40975,0.15625,2.40975,9.770992279,2.40975,12.21374035,2.40975,-3.908396959
0.371769231,2.01E-05,0.371769231,-6.53E-05,0.371769231,-3.78E-05,0.371769231,-2.55E-05,2.4165,0.3125,2.4165,-0.890625,2.4165,0.265625,2.4165,10.7480917,2.4165,10.7480917,2.4165,-4.39694643
0.372807692,1.19E-05,0.372807692,-5.72E-05,0.372807692,-3.00E-05,0.372807692,-9.57E-06,2.42325,0.1875,2.42325,-0.90625,2.42325,0.265625,2.42325,11.23664093,2.42325,12.70229053,2.42325,-0.48854962
0.373846154,1.46E-05,0.373846154,-3.51E-05,0.373846154,-1.26E-05,0.373846154,-1.68E-07,2.43,0.265625,2.43,-0.96875,2.43,0.359375,2.43,11.23664093,2.43,10.25954151,2.43,-2.931297779
0.374884615,6.88E-06,0.374884615,-2.85E-06,0.374884615,8.90E-06,0.374884615,-1.51E-06,2.43675,0.203125,2.43675,-0.859375,2.43675,0.390625,2.43675,11.72519112,2.43675,10.7480917,2.43675,-0.97709924
0.375923077,-1.49E-05,0.375923077,1.01E-06,0.375923077,2.64E-05,0.375923077,1.85E-06,2.4435,0.15625,2.4435,-0.921875,2.4435,0.3125,2.4435,10.25954151,2.4435,10.25954151,2.4435,-2.931297779
0.376961538,-1.96E-05,0.376961538,2.67E-05,0.376961538,1.93E-05,0.376961538,1.93E-05,2.45025,0.21875,2.45025,-0.96875,2.45025,0.203125,2.45025,9.770992279,2.45025,8.79389286,2.45025,-5.374045849
0.378,-2.87E-05,0.378,2.90E-05,0.378,-4.36E-06,0.378,1.29E-05,2.457,0.234375,2.457,-0.921875,2.457,0.3125,2.457,11.23664093,2.457,7.816793919,2.457,-3.41984725
0.379038462,-2.70E-05,0.379038462,3.22E-05,0.379038462,-7.05E-06,0.379038462,-3.31E-05,2.46375,0.171875,2.46375,-0.90625,2.46375,0.296875,2.46375,10.7480917,2.46375,7.328244209,2.46375,-3.908396959
0.380076923,-1.01E-05,0.380076923,4.58E-05,0.380076923,-4.20E-06,0.380076923,4.87E-06,2.4705,0.21875,2.4705,-1.015625,2.4705,0.125,2.4705,8.79389286,2.4705,5.862595558,2.4705,-7.328244209
0.381115385,-1.85E-06,0.381115385,5.35E-05,0.381115385,1.17E-06,0.381115385,-2.20E-05,2.47725,0.34375,2.47725,-0.9375,2.47725,0.1875,2.47725,9.282443047,2.47725,6.8396945,2.47725,-5.374045849
0.382153846,-6.71E-07,0.382153846,6.24E-05,0.382153846,1.96E-05,0.382153846,-3.98E-05,2.484,0.265625,2.484,-0.921875,2.484,0.234375,2.484,9.770992279,2.484,6.8396945,2.484,-3.908396959
0.383192308,-1.51E-06,0.383192308,5.87E-05,0.383192308,4.15E-05,0.383192308,-2.37E-05,2.49075,0.28125,2.49075,-0.9375,2.49075,0.3125,2.49075,9.770992279,2.49075,6.351145267,2.49075,-3.908396959
0.384230769,-7.55E-06,0.384230769,6.03E-05,0.384230769,6.36E-05,0.384230769,-2.10E-05,2.4975,0.25,2.4975,-0.828125,2.4975,0.328125,2.4975,10.25954151,2.4975,7.328244209,2.4975,-2.44274807
0.385269231,-1.56E-05,0.385269231,5.56E-05,0.385269231,8.81E-05,0.385269231,-1.56E-05,2.50425,0.21875,2.50425,-0.875,2.50425,0.25,2.50425,9.770992279,2.50425,8.305343628,2.50425,-2.931297779
0.386307692,-1.49E-05,0.386307692,5.40E-05,0.386307692,9.85E-05,0.386307692,-1.66E-05,2.511,0.3125,2.511,-0.9375,2.511,0.3125,2.511,9.770992279,2.511,7.816793919,2.511,-3.41984725
0.387346154,-1.02E-05,0.387346154,6.29E-05,0.387346154,7.89E-05,0.387346154,-1.29E-05,2.51775,0.28125,2.51775,-0.828125,2.51775,0.40625,2.51775,11.72519112,2.51775,8.305343628,2.51775,0
0.388384615,-4.20E-06,0.388384615,6.55E-05,0.388384615,3.34E-05,0.388384615,-9.23E-06,2.5245,0.21875,2.5245,-0.84375,2.5245,0.265625,2.5245,11.23664093,2.5245,10.7480917,2.5245,1.46564889
0.389423077,-1.26E-05,0.389423077,6.60E-05,0.389423077,-2.35E-06,0.389423077,-1.23E-05,2.53125,0.265625,2.53125,-0.953125,2.53125,0.140625,2.53125,9.282443047,2.53125,11.23664093,2.53125,-0.97709924
0.390461538,-1.53E-05,0.390461538,5.22E-05,0.390461538,-2.43E-05,0.390461538,-1.02E-05,2.538,0.328125,2.538,-0.953125,2.538,0.15625,2.538,9.770992279,2.538,10.25954151,2.538,-0.48854962
0.3915,-1.33E-05,0.3915,3.34E-05,0.3915,-3.58E-05,0.3915,-1.09E-05,2.54475,0.28125,2.54475,-0.953125,2.54475,0.234375,2.54475,11.23664093,2.54475,11.23664093,2.54475,2.931297779
0.392538462,-2.17E-05,0.392538462,1.19E-05,0.392538462,-3.46E-05,0.392538462,-8.90E-06,2.5515,0.28125,2.5515,-0.953125,2.5515,0.296875,2.5515,13.19083977,2.5515,10.7480917,2.5515,3.908396959
0.393576923,-3.81E-05,0.393576923,-1.85E-06,0.393576923,-2.33E-05,0.393576923,-9.90E-06,2.55825,0.25,2.55825,-0.875,2.55825,0.3125,2.55825,13.19083977,2.55825,12.70229053,2.55825,3.908396959
0.394615385,-3.98E-05,0.394615385,-7.55E-06,0.394615385,-6.88E-06,0.394615385,-1.29E-05,2.565,0.21875,2.565,-0.921875,2.565,0.234375,2.565,13.19083977,2.565,12.70229053,2.565,4.39694643
0.395653846,-9.57E-06,0.395653846,-2.77E-05,0.395653846,-2.43E-05,0.395653846,-1.26E-05,2.57175,0.296875,2.57175,-0.984375,2.57175,0.234375,2.57175,15.1450386,2.57175,12.21374035,2.57175,3.908396959
0.396692308,-2.85E-06,0.396692308,-6.33E-05,0.396692308,-7.47E-05,0.396692308,-4.87E-06,2.5785,0.28125,2.5785,-0.921875,2.5785,0.34375,2.5785,18.07633591,2.5785,12.21374035,2.5785,6.351145267
0.397730769,8.56E-06,0.397730769,-4.72E-05,0.397730769,-5.86E-05,0.397730769,-1.23E-05,2.58525,0.25,2.58525,-0.875,2.58525,0.34375,2.58525,18.56488609,2.58525,14.16793919,2.58525,8.79389286
0.398769231,-6.88E-06,0.398769231,-7.40E-05,0.398769231,-8.71E-05,0.398769231,-1.02E-05,2.592,0.25,2.592,-0.9375,2.592,0.203125,2.592,17.58778572,2.592,14.65648842,2.592,6.351145267
0.399807692,-2.17E-05,0.399807692,-0.000121355,0.399807692,-9.72E-05,0.399807692,-1.12E-05,2.59875,0.296875,2.59875,-0.96875,2.59875,0.203125,2.59875,18.56488609,2.59875,14.65648842,2.59875,5.374045849
0.400846154,-1.70E-05,0.400846154,-0.000119173,0.400846154,-9.82E-05,0.400846154,-1.95E-05,2.6055,0.3125,2.6055,-0.9375,2.6055,0.28125,2.6055,20.03053474,2.6055,15.1450386,2.6055,9.770992279
0.401884615,-8.22E-06,0.401884615,-8.98E-05,0.401884615,-8.91E-05,0.401884615,-1.73E-05,2.61225,0.28125,2.61225,-0.921875,2.61225,0.34375,2.61225,21.4961834,2.61225,16.61068726,2.61225,10.25954151
0.402923077,-1.04E-05,0.402923077,-7.67E-05,0.402923077,-6.93E-05,0.402923077,-1.46E-05,2.619,0.25,2.619,-0.921875,2.619,0.296875,2.619,21.98473358,2.619,18.07633591,2.619,10.25954151
0.403961538,-9.57E-06,0.403961538,-7.07E-05,0.403961538,-5.79E-05,0.403961538,-4.38E-05,2.62575,0.296875,2.62575,-0.921875,2.62575,0.203125,2.62575,21.4961834,2.62575,19.05343437,2.62575,10.7480917
0.405,1.73E-05,0.405,-5.72E-05,0.405,-5.62E-05,0.405,-6.88E-06,2.6325,0.28125,2.6325,-1.03125,2.6325,0.3125,2.6325,21.98473358,2.6325,20.03053474,2.6325,10.7480917
0.406038462,1.17E-05,0.406038462,-5.54E-05,0.406038462,-6.16E-05,0.406038462,3.74E-05,2.63925,0.25,2.63925,-0.921875,2.63925,0.375,2.63925,24.4274807,2.63925,20.03053474,2.63925,12.21374035
0.407076923,1.68E-06,0.407076923,-4.18E-05,0.407076923,-6.80E-05,0.407076923,1.16E-05,2.646,0.1875,2.646,-0.9375,2.646,0.21875,2.646,22.96183205,2.646,21.4961834,2.646,11.23664093
0.408115385,-2.85E-06,0.408115385,-2.80E-05,0.408115385,-7.89E-05,0.408115385,-7.55E-06,2.65275,0.25,2.65275,-1.03125,2.65275,0.25,2.65275,22.47328186,2.65275,19.54198456,2.65275,7.816793919
0.409153846,-7.55E-06,0.409153846,-2.37E-05,0.409153846,-7.96E-05,0.409153846,-3.19E-06,2.6595,0.265625,2.6595,-0.984375,2.6595,0.265625,2.6595,22.96183205,2.6595,18.56488609,2.6595,9.770992279
0.410192308,-6.21E-06,0.410192308,-2.10E-05,0.410192308,-8.01E-05,0.410192308,-5.54E-06,2.66625,0.25,2.66625,-1,2.66625,0.28125,2.66625,21.4961834,2.66625,17.58778572,2.66625,9.282443047
0.411230769,-2.85E-06,0.411230769,-2.01E-05,0.411230769,-7.94E-05,0.411230769,-1.02E-05,2.673,0.234375,2.673,-1.09375,2.673,0.421875,2.673,22.47328186,2.673,16.61068726,2.673,8.305343628
0.412269231,-4.87E-06,0.412269231,-1.70E-05,0.412269231,-7.54E-05,0.412269231,-7.05E-06,2.67975,0.265625,2.67975,-0.953125,2.67975,0.359375,2.67975,20.03053474,2.67975,16.12213707,2.67975,10.25954151
0.413307692,-9.06E-06,0.413307692,-1.09E-05,0.413307692,-3.24E-05,0.413307692,-8.90E-06,2.6865,0.265625,2.6865,-1.03125,2.6865,0.234375,2.6865,19.05343437,2.6865,15.63358784,2.6865,9.282443047
0.414346154,-2.13E-05,0.414346154,-2.18E-06,0.414346154,2.84E-05,0.414346154,-9.57E-06,2.69325,0.28125,2.69325,-1.09375,2.69325,0.359375,2.69325,23.93893051,2.69325,15.63358784,2.69325,10.25954151
0.415384615,-2.97E-05,0.415384615,7.89E-06,0.415384615,6.90E-05,0.415384615,-1.12E-05,2.7,0.171875,2.7,-1.015625,2.7,0.4375,2.7,24.91603088,2.7,14.65648842,2.7,11.23664093
0.416423077,-3.27E-05,0.416423077,1.98E-05,0.416423077,8.02E-05,0.416423077,-1.23E-05,2.70675,0.078125,2.70675,-0.984375,2.70675,0.328125,2.70675,23.93893051,2.70675,14.16793919,2.70675,9.282443047
0.417461538,-2.52E-05,0.417461538,2.69E-05,0.417461538,9.63E-05,0.417461538,-1.16E-05,2.7135,0.09375,2.7135,-1.109375,2.7135,0.296875,2.7135,23.93893051,2.7135,10.7480917,2.7135,5.862595558
0.4185,-1.76E-05,0.4185,2.53E-05,0.4185,0.000109773,0.4185,-1.49E-05,2.72025,0.15625,2.72025,-1.03125,2.72025,0.34375,2.72025,31.75572586,2.72025,5.374045849,2.72025,4.88549614
0.419538462,-1.09E-05,0.419538462,1.23E-05,0.419538462,6.41E-05,0.419538462,-1.76E-05,2.727,0.15625,2.727,-1.078125,2.727,0.4375,2.727,35.66412354,2.727,4.39694643,2.727,2.44274807
0.420576923,6.38E-06,0.420576923,1.33E-05,0.420576923,1.49E-05,0.420576923,-1.36E-05,2.73375,0.171875,2.73375,-1.09375,2.73375,0.5625,2.73375,42.01526642,2.73375,2.931297779,2.73375,0
0.421615385,1.16E-05,0.421615385,1.39E-05,0.421615385,-8.39E-06,0.421615385,-9.90E-06,2.7405,0.234375,2.7405,-1.1875,2.7405,0.453125,2.7405,47.87786102,2.7405,-0.97709924,2.7405,0.97709924
0.422653846,4.87E-06,0.422653846,8.90E-06,0.422653846,-2.60E-05,0.422653846,-1.23E-05,2.74725,0.3125,2.74725,-0.96875,2.74725,0.25,2.74725,65.46565247,2.74725,-3.908396959,2.74725,3.908396959
0.423692308,-4.53E-06,0.423692308,5.87E-06,0.423692308,-2.08E-05,0.423692308,-1.16E-05,2.754,0.5,2.754,-1.09375,2.754,0.390625,2.754,61.0687027,2.754,3.41984725,2.754,1.95419848
0.424730769,-1.29E-05,0.424730769,1.29E-05,0.424730769,5.87E-06,0.424730769,-6.04E-06,2.76075,0.28125,2.76075,-1.109375,2.76075,0.359375,2.76075,65.95420074,2.76075,9.770992279,2.76075,-3.908396959
0.425769231,-1.70E-05,0.425769231,1.19E-05,0.425769231,1.53E-05,0.425769231,-6.38E-06,2.7675,0.109375,2.7675,-1.15625,2.7675,0.28125,2.7675,69.8625946,2.7675,11.23664093,2.7675,-3.908396959
0.426807692,-1.53E-05,0.426807692,5.20E-06,0.426807692,6.55E-06,0.426807692,-8.39E-06,2.77425,-0.015625,2.77425,-1.234375,2.77425,0.390625,2.77425,69.8625946,2.77425,3.41984725,2.77425,3.908396959
0.427846154,-1.66E-05,0.427846154,-5.04E-07,0.427846154,-4.20E-06,0.427846154,-1.33E-05,2.781,0.390625,2.781,-1.4375,2.781,0.453125,2.781,80.12213898,2.781,-0.97709924,2.781,5.862595558
0.428884615,-8.39E-07,0.428884615,-2.35E-06,0.428884615,-7.05E-06,0.428884615,-1.83E-05,2.78775,0.71875,2.78775,-1.3125,2.78775,0.25,2.78775,86.47328186,2.78775,7.328244209,2.78775,-2.931297779
0.429923077,1.66E-05,0.429923077,1.01E-06,0.429923077,-6.88E-06,0.429923077,-1.49E-05,2.7945,0.703125,2.7945,-1.3125,2.7945,0.359375,2.7945,88.4274826,2.7945,21.98473358,2.7945,-4.88549614
0.430961538,1.39E-05,0.430961538,8.22E-06,0.430961538,1.78E-05,0.430961538,-1.23E-05,2.80125,0.59375,2.80125,-1.53125,2.80125,0.4375,2.80125,96.73282623,2.80125,29.80152702,2.80125,-6.351145267
0.432,7.55E-06,0.432,1.66E-05,0.432,5.00E-05,0.432,-1.39E-05,2.808,0.65625,2.808,-1.625,2.808,0.34375,2.808,109.435112,2.808,38.10686874,2.808,-12.70229053
0.433038462,-1.11E-05,0.433038462,1.70E-05,0.433038462,4.78E-05,0.433038462,-1.43E-05,2.81475,0.8125,2.81475,-1.609375,2.81475,0.59375,2.81475,113.8320618,2.81475,47.38931274,2.81475,-14.65648842
0.434076923,-1.58E-05,0.434076923,1.58E-05,0.434076923,1.63E-05,0.434076923,-1.39E-05,2.8215,0.625,2.8215,-1.859375,2.8215,0.765625,2.8215,125.0687027,2.8215,64,2.8215,-17.09923744
0.435115385,1.17E-06,0.435115385,2.17E-05,0.435115385,-1.85E-06,0.435115385,-1.33E-05,2.82825,0.609375,2.82825,-2.015625,2.82825,0.578125,2.82825,143.6335907,2.82825,65.95420074,2.82825,-25.40458107
0.436153846,9.23E-06,0.436153846,2.03E-05,0.436153846,-1.46E-05,0.436153846,-7.55E-06,2.835,0.75,2.835,-2,2.835,0.453125,2.835,159.755722,2.835,70.83969116,2.835,-36.15267181
0.437192308,1.01E-06,0.437192308,1.56E-05,0.437192308,-2.06E-05,0.437192308,4.18E-05,2.84175,0.75,2.84175,-2.125,2.84175,0.375,2.84175,172.4580078,2.84175,81.09923553,2.84175,-42.01526642
0.438230769,-7.55E-06,0.438230769,3.52E-06,0.438230769,-2.03E-05,0.438230769,2.87E-05,2.8485,0.671875,2.8485,-2.234375,2.8485,0.1875,2.8485,188.5801544,2.8485,92.33587646,2.8485,-48.8549614
0.439269231,-1.49E-05,0.439269231,-5.54E-06,0.439269231,-3.07E-05,0.439269231,1.02E-05,2.85525,0.84375,2.85525,-2.328125,2.85525,0.296875,2.85525,206.6564941,2.85525,105.0381699,2.85525,-57.6488533
0.440307692,-1.90E-05,0.440307692,-1.76E-05,0.440307692,-3.47E-05,0.440307692,-1.85E-06,2.862,0.671875,2.862,-2.234375,2.862,0.21875,2.862,230.5954132,2.862,125.557251,2.862,-71.32824707
0.441346154,-1.81E-05,0.441346154,-1.98E-05,0.441346154,-2.94E-05,0.441346154,-1.43E-05,2.86875,0.625,2.86875,-2.203125,2.86875,0.015625,2.86875,244.2748108,2.86875,137.2824402,2.86875,-72.30534363
0.442384615,-1.33E-05,0.442384615,-2.40E-05,0.442384615,1.06E-05,0.442384615,-1.59E-05,2.8755,0.640625,2.8755,-2.15625,2.8755,-0.03125,2.8755,249.6488495,2.8755,148.0305328,2.8755,-67.90839386
0.443423077,-1.16E-05,0.443423077,-3.31E-05,0.443423077,2.40E-05,0.443423077,-1.91E-05,2.88225,0.671875,2.88225,-2.046875,2.88225,-0.046875,2.88225,249.6488495,2.88225,160.7328186,2.88225,-57.16030502
0.444461538,-1.58E-05,0.444461538,-3.81E-05,0.444461538,-2.37E-05,0.444461538,-2.37E-05,2.889,0.5625,2.889,-1.90625,2.889,-0.21875,2.889,248.6717529,2.889,175.8778687,2.889,-52.76335907
0.4455,-1.66E-05,0.4455,-4.33E-05,0.4455,-0.000101549,0.4455,-2.57E-05,2.89575,0.234375,2.89575,-1.828125,2.89575,-0.265625,2.89575,248.1832123,2.89575,192,2.89575,-46.90076447
0.446538462,-1.44E-05,0.446538462,-4.06E-05,0.446538462,-9.82E-05,0.446538462,-2.62E-05,2.9025,0.0625,2.9025,-1.921875,2.9025,0.203125,2.9025,249.6488495,2.9025,192.9770966,2.9025,-25.40458107
0.447576923,-1.70E-05,0.447576923,-3.37E-05,0.447576923,-7.97E-05,0.447576923,-2.70E-05,2.90925,-0.25,2.90925,-1.6875,2.90925,0.359375,2.90925,249.6488495,2.90925,168.0610657,2.90925,10.7480917
0.448615385,-1.12E-05,0.448615385,-3.74E-05,0.448615385,-8.71E-05,0.448615385,-1.53E-05,2.916,-0.515625,2.916,-1.171875,2.916,0.375,2.916,249.6488495,2.916,144.6106873,2.916,32.73282623
0.449653846,-4.53E-06,0.449653846,-3.78E-05,0.449653846,-8.96E-05,0.449653846,-6.38E-06,2.92275,-0.546875,2.92275,-0.796875,2.92275,0.203125,2.92275,249.6488495,2.92275,73.28244019,2.92275,81.58778381
0.450692308,-8.22E-06,0.450692308,-2.97E-05,0.450692308,-5.52E-05,0.450692308,-3.52E-06,2.9295,0.546875,2.9295,-0.875,2.9295,-0.3125,2.9295,249.6488495,2.9295,-13.679389,2.9295,111.877861
0.451730769,-1.12E-05,0.451730769,-3.21E-05,0.451730769,-9.74E-06,0.451730769,-8.39E-07,2.93625,2.25,2.93625,-0.46875,2.93625,-0.9375,2.93625,248.6717529,2.93625,-60.58015442,2.93625,86.47328186
0.452769231,-9.90E-06,0.452769231,-3.51E-05,0.452769231,2.77E-05,0.452769231,-7.89E-06,2.943,2.796875,2.943,0.390625,2.943,-1.46875,2.943,189.0686951,2.943,6.351145267,2.943,25.89312935
0.453807692,-1.43E-05,0.453807692,-3.64E-05,0.453807692,1.86E-05,0.453807692,-1.33E-05,2.94975,1.9375,2.94975,0.171875,2.94975,-1.375,2.94975,97.70992279,2.94975,103.5725174,2.94975,-13.19083977
0.454846154,-1.76E-05,0.454846154,-5.39E-05,0.454846154,-2.74E-05,0.454846154,-1.09E-05,2.9565,1,2.9565,-0.4375,2.9565,-1.171875,2.9565,42.99236679,2.9565,144.1221313,2.9565,-23.45038223
0.455884615,-1.96E-05,0.455884615,-8.81E-05,0.455884615,-9.68E-05,0.455884615,-1.06E-05,2.96325,0.625,2.96325,-0.40625,2.96325,-1.109375,2.96325,23.45038223,2.96325,135.3282471,2.96325,-20.51908302
0.456923077,-2.06E-05,0.456923077,-0.000119005,0.456923077,-0.000160967,0.456923077,-1.09E-05,2.97,0.65625,2.97,-0.21875,2.97,-1.09375,2.97,3.41984725,2.97,124.0916061,2.97,-4.88549614
0.457961538,-1.43E-05,0.457961538,-0.000124376,0.457961538,-0.000192523,0.457961538,-6.88E-06,2.97675,0.546875,2.97675,-0.34375,2.97675,-0.984375,2.97675,-21.00763321,2.97675,128.9770966,2.97675,-0.48854962
0.459,-1.66E-05,0.459,-0.000118334,0.459,-0.000206287,0.459,-1.39E-05,2.9835,0.421875,2.9835,-0.40625,2.9835,-0.9375,2.9835,-38.10686874,2.9835,131.4198456,2.9835,-5.862595558
0.460038462,-2.17E-05,0.460038462,-0.000101549,0.460038462,-0.000154253,0.460038462,-1.46E-05,2.99025,0.125,2.99025,-0.375,2.99025,-0.859375,2.99025,-51.7862587,2.99025,118.2290039,2.99025,-3.908396959
0.461076923,-2.03E-05,0.461076923,-7.27E-05,0.461076923,-5.46E-05,0.461076923,-1.54E-05,2.997,-0.03125,2.997,-0.359375,2.997,-0.796875,2.997,-64.97709656,2.997,95.75572205,2.997,3.41984725
0.462115385,-1.23E-05,0.462115385,-3.68E-05,0.462115385,-4.85E-05,0.462115385,-1.33E-05,3.00375,-0.015625,3.00375,-0.40625,3.00375,-0.71875,3.00375,-74.74809265,3.00375,74.25954437,3.00375,3.908396959
0.463153846,-2.85E-06,0.463153846,3.36E-07,0.463153846,-4.45E-05,0.463153846,-1.46E-05,3.0105,-0.03125,3.0105,-0.390625,3.0105,-0.6875,3.0105,-83.54198456,3.0105,54.22900772,3.0105,-3.908396959
0.464192308,-3.69E-06,0.464192308,2.77E-05,0.464192308,5.15E-05,0.464192308,-1.26E-05,3.01725,-0.09375,3.01725,-0.34375,3.01725,-0.6875,3.01725,-94.77862549,3.01725,32.73282623,3.01725,-13.19083977
0.465230769,-1.46E-05,0.465230769,5.02E-05,0.465230769,4.55E-05,0.465230769,-1.43E-05,3.024,-0.140625,3.024,-0.328125,3.024,-0.671875,3.024,-100.6412201,3.024,21.4961834,3.024,-16.61068726
0.466269231,-3.04E-05,0.466269231,6.68E-05,0.466269231,-2.52E-06,0.466269231,-1.54E-05,3.03075,-0.15625,3.03075,-0.328125,3.03075,-0.65625,3.03075,-113.3435135,3.03075,-1.95419848,3.03075,-20.51908302
0.467307692,-1.96E-05,0.467307692,8.41E-05,0.467307692,2.80E-05,0.467307692,-1.49E-05,3.0375,-0.140625,3.0375,-0.3125,3.0375,-0.65625,3.0375,-126.0457993,3.0375,-24.4274807,3.0375,-24.4274807
0.468346154,-8.90E-06,0.468346154,9.32E-05,0.468346154,3.52E-05,0.468346154,-1.26E-05,3.04425,-0.078125,3.04425,-0.328125,3.04425,-0.640625,3.04425,-140.7022858,3.04425,-45.43511581,3.04425,-28.33587837
0.469384615,-3.36E-07,0.469384615,9.08E-05,0.469384615,0.000207965,0.469384615,-6.88E-06,3.051,0,3.051,-0.375,3.051,-0.59375,3.051,-154.870224,3.051,-62.04580307,3.051,-32.73282623
0.470423077,2.52E-06,0.470423077,7.50E-05,0.470423077,0.00047921,0.470423077,-1.51E-06,3.05775,0.109375,3.05775,-0.421875,3.05775,-0.5625,3.05775,-167.572525,3.05775,-75.72518921,3.05775,-36.15267181
0.471461538,1.06E-05,0.471461538,6.11E-05,0.471461538,0.000120012,0.471461538,-4.53E-06,3.0645,0.171875,3.0645,-0.453125,3.0645,-0.515625,3.0645,-179.2977142,3.0645,-83.05343628,3.0645,-38.10686874
0.4725,7.55E-06,0.4725,4.48E-05,0.4725,-0.00047921,0.4725,-6.88E-06,3.07125,0.234375,3.07125,-0.5,3.07125,-0.453125,3.07125,-190.5343475,3.07125,-87.93893433,3.07125,-40.54961777
0.473538462,1.51E-06,0.473538462,2.45E-05,0.473538462,-0.00064622,0.473538462,-6.55E-06,3.078,0.296875,3.078,-0.5625,3.078,-0.390625,3.078,-200.7938995,3.078,-89.89312744,3.078,-43.96946716
0.474576923,-1.34E-06,0.474576923,2.20E-05,0.474576923,-0.000158618,0.474576923,-2.01E-06,3.08475,0.3125,3.08475,-0.578125,3.08475,-0.375,3.08475,-209.5877838,3.08475,-88.91603088,3.08475,-46.41221237
0.475615385,-8.39E-07,0.475615385,2.77E-05,0.475615385,0.00023415,0.475615385,2.18E-06,3.0915,0.375,3.0915,-0.625,3.0915,-0.328125,3.0915,-219.3587799,3.0915,-85.98473358,3.0915,-47.87786102
0.476653846,2.35E-06,0.476653846,3.14E-05,0.476653846,0.000158114,0.476653846,3.86E-06,3.09825,0.4375,3.09825,-0.6875,3.09825,-0.296875,3.09825,-230.5954132,3.09825,-80.12213898,3.09825,-49.34350967
0.477692308,2.18E-06,0.477692308,3.71E-05,0.477692308,0.00010457,0.477692308,3.19E-06,3.105,0.484375,3.105,-0.75,3.105,-0.265625,3.105,-242.8091583,3.105,-71.32824707,3.105,-53.25190735
0.478730769,3.69E-06,0.478730769,4.33E-05,0.478730769,0.000129915,0.478730769,3.02E-06,3.11175,0.484375,3.11175,-0.859375,3.11175,-0.21875,3.11175,-250.1374054,3.11175,-63.02289963,3.11175,-56.67175674
0.479769231,1.17E-06,0.479769231,5.25E-05,0.479769231,0.000130922,0.479769231,6.88E-06,3.1185,0.4375,3.1185,-0.96875,3.1185,-0.140625,3.1185,-250.1374054,3.1185,-55.20610809,3.1185,-60.09160233
0.480807692,-2.69E-06,0.480807692,6.03E-05,0.480807692,0.000120348,0.480807692,1.09E-05,3.12525,0.359375,3.12525,-1.078125,3.12525,-0.0625,3.12525,-250.1374054,3.12525,-51.7862587,3.12525,-61.55725098
0.481846154,-4.87E-06,0.481846154,6.36E-05,0.481846154,0.00010927,0.481846154,1.29E-05,3.132,0.28125,3.132,-1.1875,3.132,0.015625,3.132,-250.1374054,3.132,-51.29771042,3.132,-62.04580307
0.482884615,-8.90E-06,0.482884615,5.79E-05,0.482884615,0.000103899,0.482884615,3.86E-06,3.13875,0.28125,3.13875,-1.28125,3.13875,0.09375,3.13875,-250.1374054,3.13875,-54.22900772,3.13875,-57.6488533
0.483923077,-2.60E-05,0.483923077,4.01E-05,0.483923077,9.68E-05,0.483923077,-4.87E-06,3.1455,0.171875,3.1455,-1.375,3.1455,0.171875,3.1455,-250.1374054,3.1455,-53.74045944,3.1455,-62.53435135
0.484961538,-2.58E-05,0.484961538,2.17E-05,0.484961538,7.69E-05,0.484961538,-8.90E-06,3.15225,0.140625,3.15225,-1.453125,3.15225,0.234375,3.15225,-250.1374054,3.15225,-64,3.15225,-61.55725098
0.486,-1.73E-05,0.486,2.20E-05,0.486,6.03E-05,0.486,-1.70E-05,3.159,0.078125,3.159,-1.53125,3.159,0.28125,3.159,-250.1374054,3.159,-72.30534363,3.159,-64.97709656
0.487038462,-1.19E-05,0.487038462,4.45E-05,0.487038462,5.49E-05,0.487038462,-1.49E-05,3.16575,0.046875,3.16575,-1.625,3.16575,0.34375,3.16575,-250.1374054,3.16575,-85.4961853,3.16575,-64.48854828
0.488076923,-1.51E-06,0.488076923,7.07E-05,0.488076923,4.68E-05,0.488076923,-1.38E-05,3.1725,0.03125,3.1725,-1.71875,3.1725,0.40625,3.1725,-250.1374054,3.1725,-99.66412354,3.1725,-62.53435135
0.489115385,8.90E-06,0.489115385,8.98E-05,0.489115385,4.13E-05,0.489115385,-1.90E-05,3.17925,0.0625,3.17925,-1.8125,3.17925,0.5,3.17925,-250.1374054,3.17925,-116.2748108,3.17925,-59.60305405
0.490153846,9.74E-06,0.490153846,8.64E-05,0.490153846,3.14E-05,0.490153846,-2.33E-05,3.186,0.15625,3.186,-1.890625,3.186,0.59375,3.186,-250.1374054,3.186,-133.8625946,3.186,-57.16030502
0.491192308,1.23E-05,0.491192308,6.53E-05,0.491192308,2.47E-05,0.491192308,-2.27E-05,3.19275,0.21875,3.19275,-1.921875,3.19275,0.65625,3.19275,-250.1374054,3.19275,-149.984726,3.19275,-55.69465637
0.492230769,6.21E-06,0.492230769,3.41E-05,0.492230769,-7.74E-05,0.492230769,-1.68E-05,3.1995,0.359375,3.1995,-1.953125,3.1995,0.765625,3.1995,-250.1374054,3.1995,-161.7099304,3.1995,-57.6488533
0.493269231,6.55E-06,0.493269231,-1.68E-07,0.493269231,-0.000133104,0.493269231,-9.57E-06,3.20625,0.5,3.20625,-1.9375,3.20625,0.921875,3.20625,-250.1374054,3.20625,-171.9694672,3.20625,-59.11450195
0.494307692,5.20E-06,0.494307692,-3.54E-05,0.494307692,-0.000131762,0.494307692,-1.09E-05,3.213,0.71875,3.213,-1.796875,3.213,1.015625,3.213,-249.1603088,3.213,-173.4351196,3.213,-64.97709656
0.495346154,-2.18E-06,0.495346154,-7.55E-05,0.495346154,-5.15E-05,0.495346154,-1.51E-05,3.21975,0.734375,3.21975,-1.84375,3.21975,1.21875,3.21975,-250.1374054,3.21975,-147.5419922,3.21975,-81.58778381
0.496384615,-1.96E-05,0.496384615,-0.00010457,0.496384615,5.56E-05,0.496384615,-1.59E-05,3.2265,0.34375,3.2265,-1.953125,3.2265,1.46875,3.2265,-242.3206177,3.2265,-146.0763397,3.2265,-74.74809265
0.497423077,-2.67E-05,0.497423077,-0.000129076,0.497423077,0.000113298,0.497423077,-1.38E-05,3.23325,0.328125,3.23325,-1.953125,3.23325,1.671875,3.23325,-229.129776,3.23325,-145.5877838,3.23325,-51.7862587
0.498461538,-2.89E-05,0.498461538,-0.000127398,0.498461538,0.000128069,0.498461538,-7.05E-06,3.24,0.4375,3.24,-1.84375,3.24,1.875,3.24,-222.7786255,3.24,-139.7251892,3.24,-38.59542084
0.4995,-3.37E-05,0.4995,-0.000142504,0.4995,0.000154589,0.4995,-5.04E-07,3.24675,0.453125,3.24675,-1.828125,3.24675,2.109375,3.24675,-206.6564941,3.24675,-122.6259537,3.24675,-19.54198456
0.500538462,-3.07E-05,0.500538462,-0.000184298,0.500538462,0.00020763,0.500538462,1.17E-06,3.2535,0.34375,3.2535,-1.796875,3.2535,2.3125,3.2535,-183.6946564,3.2535,-110.4122162,3.2535,-12.70229053
0.501576923,-2.43E-05,0.501576923,-0.000216022,0.501576923,6.56E-05,0.501576923,-1.51E-06,3.26025,0.296875,3.26025,-1.625,3.26025,2.4375,3.26025,-154.870224,3.26025,-106.0152664,3.26025,-12.70229053
0.502615385,-1.66E-05,0.502615385,-0.000203265,0.502615385,-9.68E-05,0.502615385,-1.68E-07,3.267,0.21875,3.267,-1.4375,3.267,2.5,3.267,-127.5114517,3.267,-99.66412354,3.267,-12.21374035
0.503653846,-1.09E-05,0.503653846,-0.000182116,0.503653846,-0.000207294,0.503653846,-3.19E-06,3.27375,0.125,3.27375,-1.296875,3.27375,2.546875,3.27375,-101.1297684,3.27375,-90.87023163,3.27375,-9.770992279
0.504692308,-1.51E-05,0.504692308,-0.000166339,0.504692308,-0.000174899,0.504692308,-6.71E-06,3.2805,0.046875,3.2805,-1.125,3.2805,2.5625,3.2805,-75.23664093,3.2805,-84.03053284,3.2805,-9.282443047
0.505730769,-1.90E-05,0.505730769,-0.000142672,0.505730769,-3.34E-05,0.505730769,-6.88E-06,3.28725,0.015625,3.28725,-0.9375,3.28725,2.609375,3.28725,-50.80916214,3.28725,-78.16793823,3.28725,-12.70229053
0.506769231,-1.16E-05,0.506769231,-0.000119005,0.506769231,3.86E-06,0.506769231,-1.12E-05,3.294,0.015625,3.294,-0.84375,3.294,2.75,3.294,-26.87022972,3.294,-68.39694977,3.294,-15.63358784
0.507807692,-7.05E-06,0.507807692,-0.000101549,0.507807692,-1.70E-05,0.507807692,-1.26E-05,3.30075,0.0625,3.30075,-0.828125,3.30075,2.796875,3.30075,-0.48854962,3.30075,-55.20610809,3.30075,-11.23664093
0.508846154,-5.20E-06,0.508846154,-7.69E-05,0.508846154,-2.17E-05,0.508846154,-3.52E-06,3.3075,0.125,3.3075,-0.78125,3.3075,2.78125,3.3075,26.38167953,3.3075,-34.19847488,3.3075,-6.8396945
0.509884615,-3.19E-06,0.509884615,-4.72E-05,0.509884615,-2.00E-05,0.509884615,-3.86E-06,3.31425,0.046875,3.31425,-0.796875,3.31425,2.65625,3.31425,50.32061005,3.31425,-13.19083977,3.31425,-6.351145267
0.510923077,-8.22E-06,0.510923077,-2.33E-05,0.510923077,-1.23E-05,0.510923077,-4.87E-06,3.321,-0.25,3.321,-0.96875,3.321,2.53125,3.321,77.19084167,3.321,2.44274807,3.321,6.351145267
0.511961538,-8.22E-06,0.511961538,5.04E-07,0.511961538,-7.22E-06,0.511961538,-4.53E-06,3.32775,-0.375,3.32775,-1.390625,3.32775,2.46875,3.32775,125.0687027,3.32775,1.46564889,3.32775,32.24427414
0.513,-1.09E-05,0.513,2.80E-05,0.513,-8.56E-06,0.513,-5.71E-06,3.3345,-1,3.3345,-1.609375,3.3345,2.46875,3.3345,193.4656525,3.3345,-2.44274807,3.3345,120.6717529
0.514038462,-1.23E-05,0.514038462,4.82E-05,0.514038462,-6.38E-06,0.514038462,-6.21E-06,3.34125,-0.046875,3.34125,0.125,3.34125,1.015625,3.34125,161.7099304,3.34125,28.33587837,3.34125,85.98473358
0.515076923,-1.17E-05,0.515076923,7.02E-05,0.515076923,2.18E-06,0.515076923,-7.89E-06,3.348,-0.140625,3.348,-1.703125,3.348,0.78125,3.348,203.2366486,3.348,71.32824707,3.348,86.96183014
0.516115385,-1.78E-05,0.516115385,9.55E-05,0.516115385,2.52E-06,0.516115385,-3.19E-06,3.35475,0.96875,3.35475,-4.765625,3.35475,-1.375,3.35475,228.6412201,3.35475,40.54961777,3.35475,13.19083977
0.517153846,-1.23E-05,0.517153846,0.000109773,0.517153846,4.87E-06,0.517153846,3.52E-06,3.3615,1.75,3.3615,-3.234375,3.3615,-2.625,3.3615,249.6488495,3.3615,34.19847488,3.3615,-16.12213707
0.518192308,-6.55E-06,0.518192308,0.00010927,0.518192308,9.23E-06,0.518192308,6.88E-06,3.36825,-0.0625,3.36825,-2.390625,3.36825,-1.703125,3.36825,249.6488495,3.36825,62.04580307,3.36825,46.90076447
0.519230769,-1.04E-05,0.519230769,0.000105241,0.519230769,3.52E-06,0.519230769,8.39E-07,3.375,0.234375,3.375,-1.09375,3.375,-1.25,3.375,249.6488495,3.375,16.12213707,3.375,-3.908396959
0.520269231,-1.29E-05,0.520269231,9.38E-05,0.520269231,-5.54E-06,0.520269231,1.17E-06,3.38175,-0.296875,3.38175,-0.375,3.38175,-0.1875,3.38175,232.0610657,3.38175,4.39694643,3.38175,-37.12977219
0.521307692,-1.39E-05,0.521307692,7.77E-05,0.521307692,-7.89E-06,0.521307692,3.52E-06,3.3885,-0.640625,3.3885,-0.90625,3.3885,1.109375,3.3885,210.5648804,3.3885,14.65648842,3.3885,-47.87786102
0.522346154,-1.39E-05,0.522346154,6.06E-05,0.522346154,-1.85E-06,0.522346154,4.87E-06,3.39525,0.234375,3.39525,-0.015625,3.39525,1.859375,3.39525,222.7786255,3.39525,19.54198456,3.39525,-60.09160233
0.523384615,-1.16E-05,0.523384615,5.93E-05,0.523384615,-1.63E-05,0.523384615,3.19E-06,3.402,-0.125,3.402,0.875,3.402,1.546875,3.402,174.9007568,3.402,36.15267181,3.402,-25.40458107
0.524423077,-7.89E-06,0.524423077,5.69E-05,0.524423077,-5.52E-05,0.524423077,1.51E-06,3.40875,0.40625,3.40875,0.421875,3.40875,1.09375,3.40875,87.45037842,3.40875,22.96183205,3.40875,9.282443047
0.525461538,-1.02E-05,0.525461538,4.65E-05,0.525461538,-9.77E-05,0.525461538,8.39E-07,3.4155,0.890625,3.4155,-0.734375,3.4155,0.125,3.4155,36.15267181,3.4155,21.98473358,3.4155,35.17557144
0.5265,-1.36E-05,0.5265,7.89E-06,0.5265,-0.000124376,0.5265,-2.18E-06,3.42225,0.375,3.42225,-1.4375,3.42225,0.078125,3.42225,53.74045944,3.42225,0.48854962,3.42225,39.08396912
0.527538462,-2.06E-05,0.527538462,-2.70E-05,0.527538462,-8.14E-05,0.527538462,-2.85E-06,3.429,0.4375,3.429,-1.078125,3.429,0.265625,3.429,82.564888,3.429,-10.25954151,3.429,51.29771042
0.528576923,-2.20E-05,0.528576923,-4.92E-05,0.528576923,-1.26E-05,0.528576923,-6.21E-06,3.43575,0.21875,3.43575,-0.75,3.43575,0.28125,3.43575,84.03053284,3.43575,-13.19083977,3.43575,58.1374054
0.529615385,-1.93E-05,0.529615385,-5.39E-05,0.529615385,1.86E-05,0.529615385,-6.21E-06,3.4425,-0.015625,3.4425,-0.515625,3.4425,0.171875,3.4425,64.48854828,3.4425,-14.65648842,3.4425,44.94656372
0.530653846,-2.05E-05,0.530653846,-4.93E-05,0.530653846,-3.24E-05,0.530653846,-5.54E-06,3.44925,0.3125,3.44925,-0.796875,3.44925,0.3125,3.44925,59.60305405,3.44925,-12.21374035,3.44925,36.15267181
0.531692308,-2.64E-05,0.531692308,-3.71E-05,0.531692308,-0.000154925,0.531692308,-1.09E-05,3.456,0.578125,3.456,-0.578125,3.456,0.203125,3.456,60.09160233,3.456,2.931297779,3.456,20.51908302
0.532730769,-2.18E-05,0.532730769,-3.58E-05,0.532730769,-0.000188327,0.532730769,-1.76E-05,3.46275,0.34375,3.46275,-0.875,3.46275,0.09375,3.46275,42.01526642,3.46275,16.61068726,3.46275,28.33587837
0.533769231,-1.73E-05,0.533769231,-5.59E-05,0.533769231,-0.000138811,0.533769231,-2.11E-05,3.4695,0.265625,3.4695,-0.984375,3.4695,0.1875,3.4695,31.75572586,3.4695,14.16793919,3.4695,24.91603088
0.534807692,-1.64E-05,0.534807692,-4.38E-05,0.534807692,-0.000119005,0.534807692,-1.46E-05,3.47625,0.171875,3.47625,-0.796875,3.47625,0.328125,3.47625,26.38167953,3.47625,9.282443047,3.47625,21.00763321
0.535846154,-1.56E-05,0.535846154,-2.97E-05,0.535846154,-0.000151904,0.535846154,-4.87E-06,3.483,0.0625,3.483,-0.84375,3.483,0.140625,3.483,12.21374035,3.483,11.23664093,3.483,12.70229053
0.536884615,-1.43E-05,0.536884615,-2.06E-05,0.536884615,-0.000144183,0.536884615,-9.57E-06,3.48975,0.203125,3.48975,-1.09375,3.48975,0.1875,3.48975,1.95419848,3.48975,9.770992279,3.48975,0.97709924
0.537923077,-1.29E-05,0.537923077,-1.36E-05,0.537923077,-0.000122362,0.537923077,-8.56E-06,3.4965,0.140625,3.4965,-0.890625,3.4965,0.328125,3.4965,3.41984725,3.4965,9.770992279,3.4965,-4.39694643
0.538961538,-7.22E-06,0.538961538,-1.38E-05,0.538961538,-8.53E-05,0.538961538,-1.24E-05,3.50325,0.265625,3.50325,-0.90625,3.50325,0.375,3.50325,4.88549614,3.50325,9.770992279,3.50325,-9.770992279
0.54,-3.19E-06,0.54,-1.06E-05,0.54,-5.79E-05,0.54,-9.57E-06,3.51,0.390625,3.51,-0.984375,3.51,0.421875,3.51,4.88549614,3.51,10.25954151,3.51,-11.72519112
0.541038462,-9.06E-06,0.541038462,-6.21E-06,0.541038462,-3.78E-05,0.541038462,-1.23E-05,3.51675,0.296875,3.51675,-0.921875,3.51675,0.375,3.51675,2.931297779,3.51675,12.21374035,3.51675,-8.305343628
0.542076923,-1.70E-05,0.542076923,3.02E-06,0.542076923,1.68E-07,0.542076923,-1.49E-05,3.5235,0.265625,3.5235,-1.0625,3.5235,0.171875,3.5235,2.44274807,3.5235,9.770992279,3.5235,-9.282443047
0.543115385,-2.23E-05,0.543115385,5.54E-06,0.543115385,1.91E-05,0.543115385,-1.33E-05,3.53025,0.3125,3.53025,-1.03125,3.53025,0.1875,3.53025,5.862595558,3.53025,8.305343628,3.53025,-12.70229053
0.544153846,-1.53E-05,0.544153846,2.40E-05,0.544153846,2.03E-05,0.544153846,-1.06E-05,3.537,0.234375,3.537,-0.828125,3.537,0.34375,3.537,6.8396945,3.537,10.7480917,3.537,-8.79389286
0.545192308,-1.68E-07,0.545192308,5.62E-05,0.545192308,2.62E-05,0.545192308,-1.19E-05,3.54375,0.21875,3.54375,-0.828125,3.54375,0.25,3.54375,4.39694643,3.54375,11.72519112,3.54375,-7.816793919
0.546230769,5.87E-06,0.546230769,6.87E-05,0.546230769,1.46E-05,0.546230769,-1.83E-05,3.5505,0.375,3.5505,-1.078125,3.5505,0.125,3.5505,5.862595558,3.5505,11.23664093,3.5505,-8.79389286
0.547269231,5.20E-06,0.547269231,2.47E-05,0.547269231,9.90E-06,0.547269231,-1.56E-05,3.55725,0.375,3.55725,-1.015625,3.55725,0.15625,3.55725,5.862595558,3.55725,12.21374035,3.55725,-5.862595558
0.548307692,-3.19E-06,0.548307692,1.85E-06,0.548307692,6.16E-05,0.548307692,-1.83E-05,3.564,0.21875,3.564,-0.953125,3.564,0.203125,3.564,8.305343628,3.564,12.21374035,3.564,-2.44274807
0.549346154,-1.23E-05,0.549346154,1.26E-05,0.549346154,8.24E-05,0.549346154,-2.03E-05,3.57075,0.21875,3.57075,-0.921875,3.57075,0.34375,3.57075,11.72519112,3.57075,8.79389286,3.57075,-3.908396959
0.550384615,-2.06E-05,0.550384615,1.93E-05,0.550384615,3.71E-05,0.550384615,-1.83E-05,3.5775,0.140625,3.5775,-0.875,3.5775,0.3125,3.5775,10.25954151,3.5775,9.770992279,3.5775,-2.931297779
0.551423077,-1.49E-05,0.551423077,9.90E-06,0.551423077,6.87E-05,0.551423077,-1.23E-05,3.58425,0.234375,3.58425,-0.921875,3.58425,0.265625,3.58425,9.770992279,3.58425,7.328244209,3.58425,-8.79389286
0.552461538,-4.87E-06,0.552461538,1.36E-05,0.552461538,0.000294575,0.552461538,-8.56E-06,3.591,0.296875,3.591,-0.890625,3.591,0.4375,3.591,11.72519112,3.591,6.8396945,3.591,-8.305343628
0.5535,5.20E-06,0.5535,1.26E-05,0.5535,0.00028719,0.5535,-8.90E-06,3.59775,0.1875,3.59775,-0.953125,3.59775,0.40625,3.59775,10.7480917,3.59775,8.79389286,3.59775,-5.374045849
0.554538462,8.90E-06,0.554538462,1.70E-05,0.554538462,0.000398306,0.554538462,-2.85E-06,3.6045,0.28125,3.6045,-0.96875,3.6045,0.15625,3.6045,9.282443047,3.6045,7.328244209,3.6045,-5.862595558
0.555576923,7.05E-06,0.555576923,7.22E-06,0.555576923,0.000170031,0.555576923,-2.35E-06,3.61125,0.359375,3.61125,-0.921875,3.61125,0.125,3.61125,9.770992279,3.61125,6.8396945,3.61125,-6.351145267
0.556615385,-1.85E-06,0.556615385,-9.57E-06,0.556615385,-0.000452689,0.556615385,-3.19E-06,3.618,0.328125,3.618,-0.921875,3.618,0.15625,3.618,9.282443047,3.618,9.282443047,3.618,-2.44274807
0.557653846,-1.83E-05,0.557653846,-3.12E-05,0.557653846,-0.001009445,0.557653846,-7.22E-06,3.62475,0.265625,3.62475,-0.90625,3.62475,0.203125,3.62475,9.770992279,3.62475,8.79389286,3.62475,-1.95419848
0.558692308,-2.70E-05,0.558692308,-5.52E-05,0.558692308,-0.000678614,0.558692308,-9.57E-06,3.6315,0.265625,3.6315,-0.890625,3.6315,0.390625,3.6315,10.7480917,3.6315,8.79389286,3.6315,-0.48854962
0.559730769,-2.25E-05,0.559730769,-5.82E-05,0.559730769,-1.86E-05,0.559730769,-7.22E-06,3.63825,0.171875,3.63825,-0.890625,3.63825,0.3125,3.63825,7.328244209,3.63825,10.25954151,3.63825,-2.931297779
0.560769231,6.55E-06,0.560769231,-4.75E-05,0.560769231,1.66E-05,0.560769231,-2.85E-06,3.645,0.234375,3.645,-0.921875,3.645,0.15625,3.645,5.862595558,3.645,9.282443047,3.645,-4.88549614
0.561807692,5.54E-06,0.561807692,-3.71E-05,0.561807692,-9.57E-06,0.561807692,7.55E-06,3.65175,0.28125,3.65175,-0.921875,3.65175,0.3125,3.65175,8.79389286,3.65175,7.816793919,3.65175,-2.931297779
0.562846154,-1.23E-05,0.562846154,-2.70E-05,0.562846154,0.000128405,0.562846154,6.21E-06,3.6585,0.171875,3.6585,-0.859375,3.6585,0.328125,3.6585,8.305343628,3.6585,7.816793919,3.6585,-3.41984725
0.563884615,-1.96E-05,0.563884615,-2.17E-05,0.563884615,0.000215351,0.563884615,1.85E-06,3.66525,0.1875,3.66525,-0.890625,3.66525,0.15625,3.66525,7.328244209,3.66525,7.328244209,3.66525,-6.351145267
0.564923077,-2.50E-05,0.564923077,-1.85E-05,0.564923077,0.000250599,0.564923077,-1.85E-06,3.672,0.296875,3.672,-0.890625,3.672,0.171875,3.672,7.816793919,3.672,5.862595558,3.672,-8.79389286
0.565961538,-3.34E-05,0.565961538,-3.44E-05,0.565961538,0.000434897,0.565961538,2.52E-06,3.67875,0.25,3.67875,-0.953125,3.67875,0.265625,3.67875,7.328244209,3.67875,8.305343628,3.67875,-5.374045849
0.567,-3.41E-05,0.567,-3.37E-05,0.567,0.000386892,0.567,-9.23E-06,3.6855,0.265625,3.6855,-0.9375,3.6855,0.3125,3.6855,8.79389286,3.6855,7.328244209,3.6855,-4.88549614
0.568038462,-2.20E-05,0.568038462,-1.12E-05,0.568038462,4.88E-05,0.568038462,-1.59E-05,3.69225,0.25,3.69225,-0.875,3.69225,0.28125,3.69225,9.770992279,3.69225,6.8396945,3.69225,-3.908396959
0.569076923,-3.69E-06,0.569076923,-8.90E-06,0.569076923,-0.00020293,0.569076923,-1.49E-05,3.699,0.25,3.699,-0.953125,3.699,0.25,3.699,8.305343628,3.699,8.305343628,3.699,-3.908396959
0.570115385,2.52E-06,0.570115385,-8.06E-06,0.570115385,-0.000237339,0.570115385,-1.86E-05,3.70575,0.28125,3.70575,-0.90625,3.70575,0.25,3.70575,8.305343628,3.70575,7.816793919,3.70575,-2.931297779
0.571153846,-6.21E-06,0.571153846,2.85E-06,0.571153846,-6.93E-05,0.571153846,-1.86E-05,3.7125,0.28125,3.7125,-0.890625,3.7125,0.3125,3.7125,9.282443047,3.7125,7.816793919,3.7125,-1.95419848
0.572192308,-1.53E-05,0.572192308,-3.36E-06,0.572192308,-8.11E-05,0.572192308,-2.13E-05,3.71925,0.3125,3.71925,-0.890625,3.71925,0.328125,3.71925,9.770992279,3.71925,9.282443047,3.71925,-1.46564889
0.573230769,-8.22E-06,0.573230769,-5.04E-06,0.573230769,-7.13E-05,0.573230769,-2.23E-05,3.726,0.296875,3.726,-0.875,3.726,0.265625,3.726,7.816793919,3.726,11.23664093,3.726,0.48854962
0.574269231,1.12E-05,0.574269231,-2.85E-06,0.574269231,7.02E-05,0.574269231,-1.93E-05,3.73275,0.328125,3.73275,-0.96875,3.73275,0.171875,3.73275,7.816793919,3.73275,11.23664093,3.73275,0.48854962
0.575307692,1.39E-05,0.575307692,-8.56E-06,0.575307692,0.000124041,0.575307692,-1.54E-05,3.7395,0.3125,3.7395,-0.953125,3.7395,0.28125,3.7395,8.305343628,3.7395,12.70229053,3.7395,2.931297779
0.576346154,1.26E-05,0.576346154,-1.46E-05,0.576346154,8.85E-05,0.576346154,-1.39E-05,3.74625,0.234375,3.74625,-0.953125,3.74625,0.25,3.74625,9.282443047,3.74625,12.21374035,3.74625,2.931297779
0.577384615,5.20E-06,0.577384615,-1.39E-05,0.577384615,5.86E-05,0.577384615,-4.36E-06,3.753,0.25,3.753,-0.90625,3.753,0.265625,3.753,10.25954151,3.753,12.70229053,3.753,2.44274807
0.578423077,-8.90E-06,0.578423077,-2.00E-05,0.578423077,2.43E-05,0.578423077,-2.52E-06,3.75975,0.234375,3.75975,-0.953125,3.75975,0.234375,3.75975,10.7480917,3.75975,12.70229053,3.75975,1.95419848
0.579461538,-2.37E-05,0.579461538,-1.70E-05,0.579461538,-2.10E-05,0.579461538,-3.52E-06,3.7665,0.3125,3.7665,-0.984375,3.7665,0.203125,3.7665,12.70229053,3.7665,14.16793919,3.7665,2.931297779
0.5805,-2.43E-05,0.5805,-1.17E-06,0.5805,-1.39E-05,0.5805,-2.85E-06,3.77325,0.28125,3.77325,-0.9375,3.77325,0.328125,3.77325,14.65648842,3.77325,12.21374035,3.77325,3.41984725
0.581538462,-8.22E-06,0.581538462,1.51E-06,0.581538462,-1.23E-05,0.581538462,-2.52E-06,3.78,0.21875,3.78,-0.890625,3.78,0.265625,3.78,16.12213707,3.78,14.16793919,3.78,4.88549614
0.582576923,3.19E-06,0.582576923,-3.31E-05,0.582576923,-0.000119005,0.582576923,-6.55E-06,3.78675,0.28125,3.78675,-1.015625,3.78675,0.203125,3.78675,15.63358784,3.78675,14.65648842,3.78675,3.908396959
0.583615385,3.52E-06,0.583615385,-5.79E-05,0.583615385,-0.000122698,0.583615385,-8.22E-06,3.7935,0.3125,3.7935,-0.90625,3.7935,0.25,3.7935,18.07633591,3.7935,14.16793919,3.7935,3.908396959
0.584653846,-1.85E-06,0.584653846,-6.56E-05,0.584653846,-2.08E-05,0.584653846,-5.20E-06,3.80025,0.296875,3.80025,-0.984375,3.80025,0.28125,3.80025,19.05343437,3.80025,16.61068726,3.80025,8.305343628
0.585692308,-2.52E-06,0.585692308,-8.54E-05,0.585692308,0.000134615,0.585692308,-4.53E-06,3.807,0.359375,3.807,-0.953125,3.807,0.390625,3.807,21.4961834,3.807,16.12213707,3.807,8.79389286
0.586730769,6.71E-07,0.586730769,-8.09E-05,0.586730769,0.000219883,0.586730769,4.70E-06,3.81375,0.265625,3.81375,-0.90625,3.81375,0.265625,3.81375,21.98473358,3.81375,20.03053474,3.81375,12.21374035
0.587769231,-9.90E-06,0.587769231,-4.85E-05,0.587769231,0.000247242,0.587769231,-4.58E-05,3.8205,0.3125,3.8205,-0.984375,3.8205,0.203125,3.8205,21.98473358,3.8205,20.51908302,3.8205,8.305343628
0.588807692,-2.87E-05,0.588807692,-5.99E-05,0.588807692,0.000305989,0.588807692,-5.52E-05,3.82725,0.3125,3.82725,-1,3.82725,0.359375,3.82725,23.93893051,3.82725,21.98473358,3.82725,11.23664093
0.589846154,-4.40E-05,0.589846154,-6.09E-05,0.589846154,0.000289876,0.589846154,9.38E-05,3.834,0.234375,3.834,-0.90625,3.834,0.375,3.834,26.38167953,3.834,22.96183205,3.834,14.65648842
0.590884615,-4.53E-05,0.590884615,-3.59E-05,0.590884615,6.46E-05,0.590884615,3.79E-05,3.84075,0.171875,3.84075,-0.96875,3.84075,0.28125,3.84075,24.91603088,3.84075,22.47328186,3.84075,12.70229053
0.591923077,-3.31E-05,0.591923077,-3.79E-05,0.591923077,-0.000109773,0.591923077,-1.59E-05,3.8475,0.25,3.8475,-1,3.8475,0.1875,3.8475,23.93893051,3.8475,21.98473358,3.8475,10.25954151
0.592961538,-1.19E-05,0.592961538,-8.24E-05,0.592961538,-9.38E-05,0.592961538,-1.09E-05,3.85425,0.28125,3.85425,-1,3.85425,0.21875,3.85425,24.91603088,3.85425,20.51908302,3.85425,13.679389
0.594,9.90E-06,0.594,-7.00E-05,0.594,-8.48E-05,0.594,-9.57E-06,3.861,0.296875,3.861,-1.03125,3.861,0.296875,3.861,24.4274807,3.861,21.4961834,3.861,14.65648842
0.595038462,2.94E-05,0.595038462,-9.74E-06,0.595038462,-0.000119677,0.595038462,-2.13E-05,3.86775,0.234375,3.86775,-1.015625,3.86775,0.359375,3.86775,23.93893051,3.86775,21.00763321,3.86775,14.16793919
0.596076923,3.32E-05,0.596076923,-1.01E-06,0.596076923,-8.21E-05,0.596076923,-2.70E-05,3.8745,0.1875,3.8745,-0.9375,3.8745,0.28125,3.8745,21.4961834,3.8745,19.05343437,3.8745,11.72519112
0.597115385,2.80E-05,0.597115385,2.52E-06,0.597115385,4.92E-05,0.597115385,-6.88E-06,3.88125,0.203125,3.88125,-1,3.88125,0.28125,3.88125,21.98473358,3.88125,16.61068726,3.88125,12.70229053
0.598153846,1.19E-05,0.598153846,2.52E-06,0.598153846,8.58E-05,0.598153846,1.46E-05,3.888,0.21875,3.888,-1.046875,3.888,0.375,3.888,22.96183205,3.888,15.63358784,3.888,11.72519112
0.599192308,1.85E-06,0.599192308,1.26E-05,0.599192308,4.72E-05,0.599192308,1.36E-05,3.89475,0.171875,3.89475,-0.984375,3.89475,0.4375,3.89475,26.38167953,3.89475,15.1450386,3.89475,12.70229053
0.600230769,-1.14E-05,0.600230769,2.06E-05,0.600230769,1.33E-05,0.600230769,1.33E-05,3.9015,0.1875,3.9015,-1.03125,3.9015,0.265625,3.9015,24.91603088,3.9015,15.1450386,3.9015,14.16793919
0.601269231,-2.30E-05,0.601269231,2.99E-05,0.601269231,-2.64E-05,0.601269231,1.80E-05,3.90825,0.421875,3.90825,-1.234375,3.90825,0.1875,3.90825,29.31297684,3.90825,14.65648842,3.90825,13.679389
0.602307692,-2.20E-05,0.602307692,3.61E-05,0.602307692,-0.000103563,0.602307692,2.10E-05,3.915,0.203125,3.915,-1.203125,3.915,0.1875,3.915,41.52671814,3.915,19.05343437,3.915,14.16793919
0.603346154,-2.17E-05,0.603346154,2.37E-05,0.603346154,-0.000172381,0.603346154,1.68E-05,3.92175,0.234375,3.92175,-1.328125,3.92175,0.609375,3.92175,52.27481079,3.92175,19.05343437,3.92175,17.58778572
0.604384615,-4.31E-05,0.604384615,5.20E-06,0.604384615,-0.000113802,0.604384615,1.73E-05,3.9285,0.53125,3.9285,-1.4375,3.9285,0.640625,3.9285,64.97709656,3.9285,15.63358784,3.9285,19.54198456
0.605423077,-6.87E-05,0.605423077,3.74E-05,0.605423077,-3.17E-05,0.605423077,1.51E-05,3.93525,0.71875,3.93525,-1.40625,3.93525,0.265625,3.93525,75.72518921,3.93525,15.63358784,3.93525,9.282443047
0.606461538,-6.46E-05,0.606461538,6.46E-05,0.606461538,-2.64E-05,0.606461538,7.55E-06,3.942,0.703125,3.942,-1.40625,3.942,0.1875,3.942,79.6335907,3.942,23.45038223,3.942,-0.48854962
0.6075,-2.75E-05,0.6075,6.70E-05,0.6075,-3.34E-05,0.6075,3.86E-06,3.94875,0.71875,3.94875,-1.609375,3.94875,0.265625,3.94875,84.51908112,3.94875,35.66412354,3.94875,-2.44274807
0.608538462,2.06E-05,0.608538462,4.28E-05,0.608538462,-2.64E-05,0.608538462,3.52E-06,3.9555,0.625,3.9555,-1.796875,3.9555,0.40625,3.9555,103.0839691,3.9555,38.59542084,3.9555,-8.305343628
0.609576923,3.52E-05,0.609576923,-2.38E-05,0.609576923,-2.43E-05,0.609576923,9.23E-06,3.96225,0.703125,3.96225,-1.703125,3.96225,0.390625,3.96225,109.435112,3.96225,51.29771042,3.96225,-16.61068726
0.610615385,2.53E-05,0.610615385,-4.87E-06,0.610615385,-2.37E-05,0.610615385,1.12E-05,3.969,0.5625,3.969,-2.015625,3.969,0.59375,3.969,121.6488571,3.969,61.55725098,3.969,-22.96183205
0.611653846,9.90E-06,0.611653846,3.34E-05,0.611653846,-1.83E-05,0.611653846,2.79E-05,3.97575,0.578125,3.97575,-2.296875,3.97575,0.703125,3.97575,147.5419922,3.97575,66.44274902,3.97575,-31.26717567
0.612692308,-8.56E-06,0.612692308,4.01E-05,0.612692308,-1.81E-05,0.612692308,-1.71E-05,3.9825,0.6875,3.9825,-2.3125,3.9825,0.65625,3.9825,158.2900696,3.9825,71.81679535,3.9825,-34.19847488
0.613730769,-2.57E-05,0.613730769,2.90E-05,0.613730769,-2.50E-05,0.613730769,1.85E-06,3.98925,0.765625,3.98925,-2.484375,3.98925,0.578125,3.98925,176.8549652,3.98925,83.05343628,3.98925,-36.64122009
0.614769231,-3.39E-05,0.614769231,1.56E-05,0.614769231,-3.21E-05,0.614769231,1.39E-05,3.996,0.71875,3.996,-2.59375,3.996,0.203125,3.996,200.3053436,3.996,93.31298065,3.996,-49.83206177
0.615807692,-3.91E-05,0.615807692,-2.18E-06,0.615807692,-2.99E-05,0.615807692,-4.87E-06,4.00275,0.640625,4.00275,-2.40625,4.00275,0,4.00275,223.2671814,4.00275,102.5954208,4.00275,-63.51145172
0.616846154,-3.91E-05,0.616846154,9.57E-06,0.616846154,-3.31E-05,0.616846154,-1.01E-06,4.0095,0.546875,4.0095,-2.359375,4.0095,0.09375,4.0095,238.9007568,4.0095,113.3435135,4.0095,-66.44274902
0.617884615,-2.57E-05,0.617884615,2.18E-06,0.617884615,-3.37E-05,0.617884615,-4.20E-06,4.01625,0.640625,4.01625,-2.421875,4.01625,0.296875,4.01625,249.6488495,4.01625,132.3969421,4.01625,-73.77099609
0.618923077,-2.18E-06,0.618923077,2.74E-05,0.618923077,-2.72E-05,0.618923077,-8.90E-06,4.023,0.4375,4.023,-2.125,4.023,0.03125,4.023,249.6488495,4.023,152.9160309,4.023,-78.16793823
0.619961538,1.38E-05,0.619961538,6.19E-05,0.619961538,-2.67E-05,0.619961538,-1.17E-05,4.02975,0.09375,4.02975,-1.96875,4.02975,-0.25,4.02975,249.6488495,4.02975,171.4809113,4.02975,-66.9312973
0.621,8.22E-06,0.621,5.62E-05,0.621,-1.06E-05,0.621,-1.31E-05,4.0365,0.03125,4.0365,-1.734375,4.0365,-0.28125,4.0365,249.6488495,4.0365,174.9007568,4.0365,-33.22137451
0.622038462,-1.07E-05,0.622038462,3.21E-05,0.622038462,1.83E-05,0.622038462,-1.24E-05,4.04325,0.140625,4.04325,-1.625,4.04325,0,4.04325,249.6488495,4.04325,170.015274,4.04325,9.770992279
0.623076923,-1.53E-05,0.623076923,9.23E-06,0.623076923,1.66E-05,0.623076923,-1.49E-05,4.05,0.140625,4.05,-1.5,4.05,0.0625,4.05,249.6488495,4.05,148.0305328,4.05,47.38931274
0.624115385,-7.22E-06,0.624115385,-8.39E-07,0.624115385,4.53E-06,0.624115385,-2.17E-05,4.05675,0.09375,4.05675,-1.078125,4.05675,0.03125,4.05675,249.6488495,4.05675,99.66412354,4.05675,69.8625946
0.625153846,-3.02E-06,0.625153846,1.26E-05,0.625153846,-4.20E-06,0.625153846,-1.90E-05,4.0635,0.34375,4.0635,-0.703125,4.0635,-0.265625,4.0635,247.2061005,4.0635,39.5725174,4.0635,79.14503479
0.626192308,4.53E-06,0.626192308,2.23E-05,0.626192308,-1.68E-07,0.626192308,-1.73E-05,4.07025,1.421875,4.07025,-0.484375,4.07025,-0.671875,4.07025,214.9618378,4.07025,17.09923744,4.07025,53.74045944
0.627230769,6.21E-06,0.627230769,2.84E-05,0.627230769,-7.22E-06,0.627230769,-1.31E-05,4.077,2.3125,4.077,-0.109375,4.077,-1.03125,4.077,158.7786255,4.077,71.81679535,4.077,14.65648842
0.628269231,-4.20E-06,0.628269231,3.32E-05,0.628269231,-2.57E-05,0.628269231,-8.90E-06,4.08375,1.796875,4.08375,-0.265625,4.08375,-1.09375,4.08375,103.5725174,4.08375,135.8167877,4.08375,-11.72519112
0.629307692,-1.12E-05,0.629307692,3.21E-05,0.629307692,-3.37E-05,0.629307692,-4.53E-06,4.0905,0.9375,4.0905,-0.53125,4.0905,-1,4.0905,86.96183014,4.0905,150.9618378,4.0905,-14.65648842
0.630346154,-1.76E-05,0.630346154,3.17E-05,0.630346154,-3.91E-05,0.630346154,-1.11E-05,4.09725,0.625,4.09725,-0.4375,4.09725,-0.984375,4.09725,63.02289963,4.09725,152.9160309,4.09725,-2.931297779
0.631384615,-2.03E-05,0.631384615,2.57E-05,0.631384615,-4.45E-05,0.631384615,-1.09E-05,4.104,0.65625,4.104,-0.375,4.104,-0.921875,4.104,41.03816605,4.104,150.4732819,4.104,10.25954151
0.632423077,-2.06E-05,0.632423077,2.03E-05,0.632423077,-3.52E-05,0.632423077,-9.74E-06,4.11075,0.5625,4.11075,-0.359375,4.11075,-0.859375,4.11075,21.98473358,4.11075,154.3816833,4.11075,15.63358784
0.633461538,-1.09E-05,0.633461538,-1.26E-05,0.633461538,-2.57E-05,0.633461538,-4.36E-06,4.1175,0.296875,4.1175,-0.3125,4.1175,-0.796875,4.1175,5.374045849,4.1175,153.4045868,4.1175,8.79389286
0.6345,-1.51E-06,0.6345,-2.53E-05,0.6345,-9.57E-06,0.6345,5.04E-07,4.12425,0.125,4.12425,-0.359375,4.12425,-0.71875,4.12425,-9.282443047,4.12425,138.7480927,4.12425,2.44274807
0.635538462,-7.55E-06,0.635538462,-1.73E-05,0.635538462,-1.16E-05,0.635538462,2.52E-06,4.131,0.046875,4.131,-0.390625,4.131,-0.671875,4.131,-18.56488609,4.131,118.7175598,4.131,-2.931297779
0.636576923,-1.49E-05,0.636576923,-1.51E-05,0.636576923,-3.14E-05,0.636576923,-3.52E-06,4.13775,-0.03125,4.13775,-0.359375,4.13775,-0.640625,4.13775,-26.38167953,4.13775,98.68701935,4.13775,-4.88549614
0.637615385,-1.56E-05,0.637615385,-1.26E-05,0.637615385,-3.39E-05,0.637615385,-6.55E-06,4.1445,-0.125,4.1445,-0.34375,4.1445,-0.625,4.1445,-34.19847488,4.1445,76.21373749,4.1445,-8.305343628
0.638653846,-1.43E-05,0.638653846,-1.19E-05,0.638653846,-2.57E-05,0.638653846,-9.57E-06,4.15125,-0.140625,4.15125,-0.34375,4.15125,-0.609375,4.15125,-41.03816605,4.15125,51.29771042,4.15125,-12.70229053
0.639692308,-1.14E-05,0.639692308,-7.55E-06,0.639692308,-2.50E-05,0.639692308,-1.14E-05,4.158,-0.171875,4.158,-0.3125,4.158,-0.609375,4.158,-48.36641312,4.158,24.4274807,4.158,-18.56488609
0.640730769,-1.26E-05,0.640730769,-8.39E-07,0.640730769,-2.01E-05,0.640730769,-1.36E-05,4.16475,-0.15625,4.16475,-0.28125,4.16475,-0.609375,4.16475,-56.67175674,4.16475,-0.48854962,4.16475,-23.93893051
0.641769231,-1.43E-05,0.641769231,-1.68E-07,0.641769231,-1.46E-05,0.641769231,-9.23E-06,4.1715,-0.140625,4.1715,-0.25,4.1715,-0.609375,4.1715,-66.44274902,4.1715,-23.45038223,4.1715,-29.80152702
0.642807692,-1.36E-05,0.642807692,-2.18E-06,0.642807692,-1.59E-05,0.642807692,-1.04E-05,4.17825,-0.125,4.17825,-0.25,4.17825,-0.609375,4.17825,-77.19084167,4.17825,-44.45801544,4.17825,-34.68702316
0.643846154,-1.02E-05,0.643846154,-7.55E-06,0.643846154,-3.24E-05,0.643846154,-1.06E-05,4.185,-0.078125,4.185,-0.25,4.185,-0.609375,4.185,-88.4274826,4.185,-64,4.185,-37.12977219
0.644884615,-5.54E-06,0.644884615,-1.53E-05,0.644884615,-5.20E-05,0.644884615,-1.19E-05,4.19175,0.03125,4.19175,-0.265625,4.19175,-0.59375,4.19175,-100.6412201,4.19175,-77.67938995,4.19175,-40.06106949
0.645923077,-8.39E-06,0.645923077,-2.64E-05,0.645923077,-7.67E-05,0.645923077,-1.44E-05,4.1985,0.109375,4.1985,-0.28125,4.1985,-0.578125,4.1985,-106.992363,4.1985,-82.564888,4.1985,-41.52671814
0.646961538,-1.09E-05,0.646961538,-2.94E-05,0.646961538,-8.90E-05,0.646961538,-1.49E-05,4.20525,0.1875,4.20525,-0.3125,4.20525,-0.5625,4.20525,-120.6717529,4.20525,-88.4274826,4.20525,-46.41221237
0.648,-1.09E-05,0.648,-3.88E-05,0.648,-9.08E-05,0.648,-1.19E-05,4.212,0.234375,4.212,-0.359375,4.212,-0.53125,4.212,-133.8625946,4.212,-90.87023163,4.212,-50.80916214
0.649038462,-1.51E-05,0.649038462,-3.17E-05,0.649038462,-6.43E-05,0.649038462,-1.76E-05,4.21875,0.25,4.21875,-0.40625,4.21875,-0.484375,4.21875,-147.5419922,4.21875,-90.38167572,4.21875,-52.76335907
0.650076923,-1.88E-05,0.650076923,-2.20E-05,0.650076923,-4.05E-05,0.650076923,-2.33E-05,4.2255,0.265625,4.2255,-0.46875,4.2255,-0.4375,4.2255,-161.7099304,4.2255,-88.4274826,4.2255,-52.27481079
0.651115385,-1.29E-05,0.651115385,-2.22E-05,0.651115385,-1.96E-05,0.651115385,-3.04E-05,4.23225,0.3125,4.23225,-0.546875,4.23225,-0.40625,4.23225,-174.9007568,4.23225,-85.00763702,4.23225,-50.80916214
0.652153846,-1.16E-05,0.652153846,-1.98E-05,0.652153846,4.20E-06,0.652153846,-2.77E-05,4.239,0.34375,4.239,-0.625,4.239,-0.359375,4.239,-188.5801544,4.239,-79.6335907,4.239,-50.32061005
0.653192308,-7.89E-06,0.653192308,-1.33E-05,0.653192308,2.64E-05,0.653192308,-2.23E-05,4.24575,0.34375,4.24575,-0.71875,4.24575,-0.3125,4.24575,-201.2824402,4.24575,-72.30534363,4.24575,-51.7862587
0.654230769,-5.54E-06,0.654230769,-1.14E-05,0.654230769,4.95E-05,0.654230769,-1.83E-05,4.2525,0.3125,4.2525,-0.8125,4.2525,-0.25,4.2525,-213.0076294,4.2525,-64.97709656,4.2525,-53.74045944
0.655269231,-8.39E-06,0.655269231,-8.22E-06,0.655269231,6.70E-05,0.655269231,-1.90E-05,4.25925,0.296875,4.25925,-0.875,4.25925,-0.21875,4.25925,-222.2900696,4.25925,-59.60305405,4.25925,-55.20610809
0.656307692,-5.87E-06,0.656307692,-8.22E-06,0.656307692,7.97E-05,0.656307692,-1.53E-05,4.266,0.234375,4.266,-0.953125,4.266,-0.15625,4.266,-231.0839691,4.266,-56.18320465,4.266,-54.717556
0.657346154,-4.53E-06,0.657346154,-1.23E-05,0.657346154,9.01E-05,0.657346154,-7.89E-06,4.27275,0.15625,4.27275,-1.046875,4.27275,-0.09375,4.27275,-238.4122162,4.27275,-55.20610809,4.27275,-52.27481079
0.658384615,-6.88E-06,0.658384615,-1.36E-05,0.658384615,9.33E-05,0.658384615,-1.17E-06,4.2795,0.0625,4.2795,-1.15625,4.2795,-0.015625,4.2795,-243.7862549,4.2795,-59.11450195,4.2795,-49.34350967
0.659423077,-1.12E-05,0.659423077,-1.96E-05,0.659423077,9.05E-05,0.659423077,-2.52E-06,4.28625,0.03125,4.28625,-1.25,4.28625,0.046875,4.28625,-246.7175598,4.28625,-65.95420074,4.28625,-45.92366409
0.660461538,-1.96E-05,0.660461538,-3.91E-05,0.660461538,1.86E-05,0.660461538,6.55E-06,4.293,0.015625,4.293,-1.328125,4.293,0.078125,4.293,-247.6946564,4.293,-74.25954437,4.293,-43.48091507
0.6615,-1.58E-05,0.6615,-3.74E-05,0.6615,2.79E-05,0.6615,7.22E-06,4.29975,0.015625,4.29975,-1.390625,4.29975,0.109375,4.29975,-248.6717529,4.29975,-84.03053284,4.29975,-42.99236679
0.662538462,-9.90E-06,0.662538462,-2.43E-05,0.662538462,3.39E-05,0.662538462,-8.39E-07,4.3065,0.0625,4.3065,-1.453125,4.3065,0.140625,4.3065,-249.1603088,4.3065,-89.40457916,4.3065,-42.99236679
0.663576923,-7.05E-06,0.663576923,-1.90E-05,0.663576923,2.52E-05,0.663576923,-1.01E-06,4.31325,0.125,4.31325,-1.515625,4.31325,0.171875,4.31325,-250.1374054,4.31325,-100.6412201,4.31325,-43.96946716
0.664615385,-4.53E-06,0.664615385,-1.43E-05,0.664615385,1.46E-05,0.664615385,-7.89E-06,4.32,0.1875,4.32,-1.578125,4.32,0.21875,4.32,-250.1374054,4.32,-110.4122162,4.32,-45.92366409
